t_ms,gx,gy,gz,ax,ay,az,sp_x,sp_y,sp_z,pid_x,pid_y,pid_z,m1,m2,m3,m4,roll,pitch,yaw,alt_m,thr,mode,armed,sat,sp_roll,sp_pitch,v_fwd,v_right,vt_fwd,vt_right,range_m,flow_q,est_flags
#
# chuyen bay moi, moc boot_ms = 2119854
#   nhip Hz = 100
10,0.5,0.0,0.3,0.007,0.008,-1.008,4.9,-3.9,0.0,0.0190,-0.0150,0.0000,158,231,288,215,0.00,0.01,2.62,0.14,0.0000,1,1,1,0.01,0.00,0.54,-0.06,0.00,0.00,0.14,208,30
20,0.1,-0.1,0.0,0.014,0.012,-1.017,4.9,-3.9,0.0,0.0194,-0.0149,0.0000,158,232,289,215,0.00,0.01,2.62,0.14,0.0000,1,1,1,0.01,0.00,0.54,-0.06,0.00,0.00,0.14,208,30
30,0.0,0.0,-0.3,0.016,0.011,-1.012,4.9,-3.9,0.0,0.0196,-0.0151,0.0000,158,231,290,216,0.00,0.01,2.62,0.14,0.0000,1,1,1,0.01,0.00,0.54,-0.06,0.00,0.00,0.14,208,30
40,0.0,0.0,0.0,0.012,0.007,-1.010,5.0,-3.9,0.0,0.0195,-0.0150,0.0000,158,233,290,215,0.00,0.01,2.62,0.14,0.0000,1,1,1,0.01,0.00,0.54,-0.06,0.00,0.00,0.14,208,30
50,-0.2,-0.7,0.4,0.016,0.007,-1.011,4.9,-3.9,0.0,0.0198,-0.0143,0.0000,158,233,287,212,0.00,0.01,2.62,0.14,0.0000,1,1,1,0.01,0.00,0.54,-0.06,0.00,0.00,0.14,208,30
60,-0.2,0.0,0.0,0.014,0.004,-1.011,4.9,-3.9,0.0,0.0197,-0.0150,0.0000,158,233,290,215,0.00,0.01,2.62,0.14,0.0000,1,1,1,0.01,0.00,0.54,-0.06,0.00,0.00,0.14,208,30
70,0.0,0.0,0.0,0.019,0.012,-1.013,4.9,-3.9,0.0,0.0194,-0.0151,0.0000,158,231,289,215,0.00,0.01,2.62,0.14,0.0000,1,1,1,0.01,0.00,0.54,-0.06,0.00,0.00,0.14,208,30
80,0.3,0.0,-0.1,0.012,0.005,-1.020,4.9,-3.9,0.0,0.0192,-0.0150,0.0000,158,230,288,215,0.00,0.01,2.62,0.14,0.0000,1,1,1,0.01,0.00,0.54,-0.06,0.00,0.00,0.14,208,30
90,0.2,-0.3,0.1,0.012,0.011,-1.010,4.9,-3.9,0.0,0.0193,-0.0147,0.0000,158,231,287,214,0.00,0.01,2.62,0.14,0.0000,1,1,1,0.01,0.00,0.54,-0.06,0.00,0.00,0.14,208,30
100,0.1,-0.4,0.0,0.012,0.008,-1.010,4.9,-3.9,0.0,0.0194,-0.0146,0.0000,158,232,287,213,0.00,0.01,2.62,0.14,0.0000,1,1,1,0.01,0.00,0.54,-0.06,0.00,0.00,0.14,208,30
110,0.2,0.2,-0.2,0.009,0.007,-1.014,4.9,-3.9,0.0,0.0192,-0.0152,0.0000,158,231,288,215,0.00,0.01,2.62,0.14,0.0000,1,1,1,0.01,0.00,0.54,-0.06,0.00,0.00,0.14,208,30
120,0.1,-0.2,0.0,0.011,0.015,-1.015,4.9,-3.9,0.0,0.0194,-0.0148,0.0000,158,231,287,214,0.00,0.01,2.62,0.14,0.0000,1,1,1,0.01,0.00,0.54,-0.06,0.00,0.00,0.14,208,30
130,-0.2,-0.3,0.0,0.016,0.007,-1.012,4.9,-3.9,0.0,0.0198,-0.0148,0.0000,158,233,289,214,0.00,0.01,2.62,0.14,0.0000,1,1,1,0.01,0.00,0.54,-0.06,0.00,0.00,0.14,208,30
140,0.0,-0.3,0.0,0.015,0.000,-1.014,4.9,-3.9,0.0,0.0194,-0.0147,0.0000,158,231,287,213,0.00,0.01,2.62,0.14,0.0000,1,1,1,0.01,0.00,0.54,-0.06,0.00,0.00,0.14,208,30
150,0.0,0.3,0.1,0.011,0.011,-1.011,4.9,-3.9,0.0,0.0196,-0.0154,0.0000,158,232,290,216,0.00,0.01,2.62,0.14,0.0000,1,1,1,0.01,0.00,0.54,-0.06,0.00,0.00,0.14,208,30
161,0.0,0.2,0.2,0.014,0.011,-1.015,4.9,-3.9,0.0,0.0194,-0.0153,0.0000,158,231,290,216,0.00,0.01,2.62,0.14,0.0000,1,1,1,0.01,0.00,0.54,-0.06,0.00,0.00,0.14,208,30
171,0.1,-0.1,0.0,0.016,0.005,-1.012,4.9,-3.9,0.0,0.0193,-0.0150,0.0000,158,231,288,215,0.00,0.01,2.62,0.14,0.0000,1,1,1,0.01,0.00,0.54,-0.06,0.00,0.00,0.14,208,30
181,0.2,0.0,0.0,0.015,0.002,-1.009,4.9,-3.9,0.0,0.0193,-0.0150,0.0000,158,232,289,215,0.00,0.01,2.62,0.14,0.0000,1,1,1,0.01,0.00,0.54,-0.06,0.00,0.00,0.14,208,30
191,0.1,0.0,0.0,0.009,0.010,-1.013,4.9,-3.9,0.0,0.0194,-0.0151,0.0000,158,231,288,215,0.00,0.01,2.62,0.14,0.0000,1,1,1,0.01,0.00,0.54,-0.06,0.00,0.00,0.14,208,30
201,0.2,0.2,0.0,0.006,0.013,-1.014,4.9,-3.9,0.0,0.0193,-0.0153,0.0000,158,231,289,216,0.00,0.01,2.62,0.14,0.0000,1,1,1,0.01,0.00,0.54,-0.06,0.00,0.00,0.14,208,30
211,-0.2,0.0,0.0,0.017,0.004,-1.011,4.9,-3.9,0.0,0.0197,-0.0151,0.0000,158,233,291,215,0.00,0.01,2.62,0.14,0.0000,1,1,1,0.01,0.00,0.54,-0.06,0.00,0.00,0.14,208,30
221,-0.4,-0.5,0.1,0.016,0.003,-1.022,4.9,-3.9,0.0,0.0200,-0.0147,0.0000,158,234,290,214,0.00,0.01,2.62,0.14,0.0000,1,1,1,0.01,0.00,0.54,-0.06,0.00,0.00,0.14,208,30
231,-0.1,0.0,-0.3,0.010,0.005,-1.012,4.9,-3.9,0.0,0.0197,-0.0150,0.0000,158,232,289,215,0.00,0.01,2.62,0.14,0.0000,1,1,1,0.01,0.00,0.54,-0.06,0.00,0.00,0.14,208,30
241,0.1,-0.2,0.0,0.011,0.005,-1.013,4.9,-3.9,0.0,0.0193,-0.0148,0.0000,158,231,286,214,0.00,0.01,2.62,0.14,0.0000,1,1,1,0.01,0.00,0.54,-0.06,0.00,0.00,0.14,208,30
251,0.0,0.0,0.0,0.014,0.007,-1.023,4.9,-3.9,0.0,0.0194,-0.0151,0.0000,158,231,289,215,0.00,0.01,2.62,0.14,0.0000,1,1,1,0.01,0.00,0.54,-0.06,0.00,0.00,0.14,208,30
261,0.2,0.0,0.0,0.018,0.013,-1.015,4.9,-3.9,0.0,0.0192,-0.0150,0.0000,158,231,288,215,0.00,0.01,2.62,0.14,0.0000,1,1,1,0.01,0.00,0.54,-0.06,0.00,0.00,0.14,208,30
272,0.1,-0.4,0.0,0.015,0.006,-1.013,4.9,-3.9,0.0,0.0194,-0.0146,0.0000,158,231,286,213,0.00,0.01,2.62,0.14,0.0000,1,1,1,0.01,0.00,0.54,-0.06,0.00,0.00,0.14,208,30
282,0.1,-0.1,0.2,0.009,0.004,-1.017,4.9,-3.9,0.0,0.0194,-0.0149,0.0000,158,231,287,214,0.00,0.01,2.62,0.14,0.0000,1,1,1,0.01,0.00,0.54,-0.06,0.00,0.00,0.14,208,30
292,0.0,-0.2,0.0,0.017,0.009,-1.010,4.9,-3.9,0.0,0.0195,-0.0149,0.0000,158,232,288,214,0.00,0.01,2.62,0.14,0.0000,1,1,1,0.01,0.00,0.54,-0.06,0.00,0.00,0.14,208,30
302,-0.3,0.2,-0.3,0.012,0.006,-1.017,4.9,-3.9,0.0,0.0199,-0.0153,0.0000,158,233,292,216,0.00,0.01,2.62,0.14,0.0000,1,1,1,0.01,0.00,0.54,-0.06,0.00,0.00,0.14,209,30
312,0.2,-0.4,0.1,0.012,0.008,-1.019,4.9,-3.9,0.0,0.0193,-0.0146,0.0000,158,231,286,213,0.00,0.01,2.62,0.14,0.0000,1,1,1,0.01,0.00,0.54,-0.06,0.00,0.00,0.14,208,30
322,0.2,-0.3,0.2,0.012,0.003,-1.012,4.9,-3.9,0.0,0.0192,-0.0147,0.0000,158,231,286,214,0.00,0.01,2.62,0.14,0.0000,1,1,1,0.01,0.00,0.54,-0.06,0.00,0.00,0.15,208,30
332,0.0,0.1,-0.2,0.011,0.003,-1.016,4.9,-3.9,0.0,0.0196,-0.0152,0.0000,158,231,288,215,0.00,0.01,2.62,0.14,0.0000,1,1,1,0.01,0.00,0.54,-0.06,0.00,0.00,0.15,208,30
342,0.3,0.2,-0.2,0.014,0.012,-1.012,4.9,-3.9,0.0,0.0192,-0.0154,0.0000,158,231,289,216,0.00,0.01,2.62,0.14,0.0000,1,1,1,0.01,0.00,0.54,-0.06,0.00,0.00,0.15,208,30
352,0.3,0.0,0.5,0.013,0.010,-1.008,4.9,-3.9,0.0,0.0191,-0.0150,0.0000,158,232,289,215,0.00,0.01,2.62,0.14,0.0000,1,1,1,0.01,0.00,0.54,-0.06,0.00,0.00,0.15,208,30
362,0.0,-0.3,-0.1,0.017,0.004,-1.013,4.9,-3.9,0.0,0.0195,-0.0148,0.0000,158,232,289,214,0.00,0.01,2.62,0.14,0.0000,1,1,1,0.01,0.00,0.54,-0.06,0.00,0.00,0.15,208,30
373,0.3,0.1,-0.2,0.015,0.008,-1.014,4.9,-3.9,0.0,0.0192,-0.0153,0.0000,158,231,289,216,0.00,0.01,2.62,0.15,0.0000,1,1,1,0.01,0.00,0.54,-0.06,0.00,0.00,0.16,208,30
383,-0.1,0.3,0.1,0.012,0.005,-1.010,4.9,-3.9,0.0,0.0197,-0.0154,0.0000,158,233,291,216,0.00,0.01,2.62,0.15,0.0000,1,1,1,0.01,0.00,0.54,-0.06,0.00,0.00,0.15,208,30
393,-0.3,-0.3,0.0,0.015,0.004,-1.020,4.9,-3.9,0.0,0.0198,-0.0147,0.0000,158,233,290,214,0.00,0.01,2.62,0.15,0.0000,1,1,1,0.01,0.00,0.54,-0.06,0.00,0.00,0.15,208,30
403,0.0,-0.4,-0.2,0.020,0.004,-1.015,4.9,-3.9,0.0,0.0195,-0.0146,0.0000,158,232,288,214,0.00,0.01,2.62,0.15,0.0000,1,1,1,0.01,0.00,0.54,-0.06,0.00,0.00,0.15,208,30
413,0.2,0.0,0.2,0.011,0.005,-1.018,4.9,-3.9,0.0,0.0193,-0.0150,0.0000,158,231,288,215,0.00,0.01,2.62,0.15,0.0000,1,1,1,0.01,0.00,0.54,-0.06,0.00,0.00,0.15,208,30
423,0.2,0.2,-0.1,0.008,0.001,-1.017,4.9,-3.9,0.0,0.0192,-0.0151,0.0000,158,231,288,215,0.00,0.01,2.62,0.15,0.0000,1,1,1,0.01,0.00,0.54,-0.06,0.00,0.00,0.15,208,30
433,0.2,-0.1,0.0,0.010,0.009,-1.017,4.9,-3.9,0.0,0.0193,-0.0149,0.0000,158,231,288,215,0.00,0.01,2.62,0.15,0.0000,1,1,1,0.01,0.00,0.54,-0.06,0.00,0.00,0.16,208,30
443,0.2,-0.4,0.2,0.018,0.003,-1.010,4.9,-3.9,0.0,0.0193,-0.0147,0.0000,158,232,288,214,0.00,0.01,2.62,0.15,0.0000,1,1,1,0.01,0.00,0.54,-0.06,0.00,0.00,0.16,208,30
453,0.2,-0.2,0.0,0.010,0.005,-1.018,4.9,-3.9,0.0,0.0192,-0.0147,0.0000,158,231,286,214,0.00,0.01,2.62,0.15,0.0000,1,1,1,0.01,0.00,0.54,-0.06,0.00,0.00,0.16,208,30
463,0.0,-0.3,-0.3,0.009,0.002,-1.014,4.9,-3.9,0.0,0.0195,-0.0147,0.0000,158,232,287,213,0.00,0.01,2.62,0.15,0.0000,1,1,1,0.01,0.00,0.54,-0.06,0.00,0.00,0.16,208,30
473,0.0,0.0,0.0,0.013,0.005,-1.017,4.9,-3.9,0.0,0.0196,-0.0149,0.0000,158,232,288,214,0.00,0.01,2.62,0.15,0.0000,1,1,1,0.01,0.00,0.54,-0.06,0.00,0.00,0.16,208,30
484,0.0,-0.3,0.2,0.016,0.007,-1.015,4.9,-3.9,0.0,0.0195,-0.0148,0.0000,158,232,288,214,0.00,0.01,2.62,0.15,0.0000,1,1,1,0.01,0.00,0.54,-0.06,0.00,0.00,0.16,208,30
494,0.0,0.0,-0.4,0.014,0.002,-1.013,4.9,-3.9,0.0,0.0195,-0.0150,0.0000,158,232,289,215,0.00,0.01,2.62,0.15,0.0000,1,1,1,0.01,0.00,0.54,-0.06,0.00,0.00,0.16,208,30
504,0.0,-0.1,0.1,0.010,0.003,-1.013,4.9,-3.9,0.0,0.0193,-0.0147,0.0000,158,231,286,213,0.00,0.01,2.62,0.15,0.0000,1,1,1,0.01,0.00,0.54,-0.06,0.00,0.00,0.16,208,30
514,0.1,-0.2,0.1,0.015,0.002,-1.018,4.9,-3.9,0.0,0.0193,-0.0148,0.0000,158,231,287,214,0.00,0.01,2.62,0.15,0.0000,1,1,1,0.01,0.00,0.54,-0.06,0.00,0.00,0.16,208,30
524,-0.1,0.2,-0.2,0.014,0.000,-1.009,4.9,-3.9,0.0,0.0197,-0.0153,0.0000,158,233,291,216,0.00,0.01,2.62,0.15,0.0000,1,1,1,0.01,0.00,0.54,-0.06,0.00,0.00,0.16,208,30
534,-0.2,0.1,-0.1,0.015,0.006,-1.016,4.9,-3.9,0.0,0.0197,-0.0152,0.0000,158,233,291,216,0.00,0.01,2.62,0.15,0.0000,1,1,1,0.01,0.00,0.54,-0.06,0.00,0.00,0.16,208,30
544,0.2,0.0,0.5,0.015,-0.001,-1.015,4.9,-3.9,0.0,0.0193,-0.0150,0.0000,158,231,288,215,0.00,0.01,2.62,0.15,0.0000,1,1,1,0.01,0.00,0.54,-0.06,0.00,0.00,0.16,208,30
554,-0.3,-0.2,-0.2,0.012,-0.001,-1.022,4.9,-3.9,0.0,0.0198,-0.0148,0.0000,158,233,288,213,0.00,0.01,2.62,0.15,0.0000,1,1,1,0.01,0.00,0.54,-0.06,0.00,0.00,0.16,208,30
564,-0.3,0.0,-0.4,0.017,0.002,-1.013,4.9,-3.9,0.0,0.0199,-0.0152,0.0000,158,233,291,215,0.00,0.01,2.62,0.15,0.0000,1,1,1,0.01,0.00,0.54,-0.06,0.00,0.00,0.16,208,30
574,0.0,0.0,0.3,0.018,0.004,-1.013,4.9,-3.9,0.0,0.0195,-0.0152,0.0000,158,232,289,216,0.00,0.01,2.62,0.15,0.0000,1,1,1,0.01,0.00,0.54,-0.06,0.00,0.00,0.16,208,30
584,0.1,-0.1,0.4,0.015,0.007,-1.012,4.9,-3.9,0.0,0.0193,-0.0148,0.0000,158,231,287,214,0.00,0.01,2.62,0.15,0.0000,1,1,1,0.01,0.00,0.54,-0.06,0.00,0.00,0.16,208,30
594,0.3,-0.2,-0.4,0.013,-0.001,-1.018,4.9,-3.9,0.0,0.0191,-0.0148,0.0000,158,230,286,214,0.00,0.01,2.62,0.15,0.0000,1,1,1,0.01,0.00,0.54,-0.06,0.00,0.00,0.16,208,30
605,0.3,-0.2,-0.1,0.011,0.009,-1.018,4.9,-3.9,0.0,0.0191,-0.0147,0.0000,158,231,287,214,0.00,0.01,2.62,0.15,0.0000,1,1,1,0.01,0.00,0.54,-0.06,0.00,0.00,0.16,208,30
615,0.1,0.0,0.1,0.013,0.005,-1.013,4.9,-3.9,0.0,0.0193,-0.0151,0.0000,158,231,289,216,0.00,0.01,2.62,0.15,0.0000,1,1,1,0.01,0.00,0.54,-0.06,0.00,0.00,0.15,208,30
625,0.3,-0.3,0.2,0.010,0.004,-1.014,4.9,-3.9,0.0,0.0192,-0.0146,0.0000,158,231,287,214,0.00,0.01,2.62,0.15,0.0000,1,1,1,0.01,0.00,0.54,-0.06,0.00,0.00,0.16,208,30
635,0.0,-0.5,-0.1,0.012,0.002,-1.015,4.9,-3.9,0.0,0.0195,-0.0144,0.0000,158,232,287,213,0.00,0.01,2.62,0.15,0.0000,1,1,1,0.01,0.00,0.54,-0.06,0.00,0.00,0.16,208,30
645,0.0,0.0,-0.2,0.012,0.002,-1.016,4.9,-3.9,0.0,0.0196,-0.0151,0.0000,158,232,290,215,0.00,0.01,2.62,0.15,0.0000,1,1,1,0.01,0.00,0.54,-0.06,0.00,0.00,0.16,208,30
655,0.1,-0.2,0.0,0.014,0.008,-1.019,4.9,-3.9,0.0,0.0194,-0.0148,0.0000,158,232,288,214,0.00,0.01,2.62,0.15,0.0000,1,1,1,0.01,0.00,0.54,-0.06,0.00,0.00,0.16,208,30
665,0.0,-0.1,-0.1,0.017,0.007,-1.007,4.9,-3.9,0.0,0.0194,-0.0149,0.0000,158,232,288,214,0.00,0.01,2.62,0.15,0.0000,1,1,1,0.01,0.00,0.54,-0.06,0.00,0.00,0.16,208,30
675,0.0,-0.1,0.0,0.017,0.001,-1.012,4.9,-3.9,0.0,0.0193,-0.0148,0.0000,158,231,287,214,0.00,0.01,2.62,0.15,0.0000,1,1,1,0.01,0.00,0.54,-0.06,0.00,0.00,0.15,208,30
685,0.3,0.0,0.1,0.012,0.000,-1.018,4.9,-3.9,0.0,0.0192,-0.0151,0.0000,158,230,287,215,0.00,0.01,2.62,0.15,0.0000,1,1,1,0.01,0.00,0.54,-0.06,0.00,0.00,0.16,208,30
695,0.0,0.3,0.0,0.015,0.001,-1.013,4.9,-3.9,0.0,0.0195,-0.0154,0.0000,158,232,290,216,0.00,0.01,2.62,0.15,0.0000,1,1,1,0.01,0.00,0.54,-0.06,0.00,0.00,0.16,208,30
705,0.0,-0.1,0.0,0.017,0.006,-1.017,4.9,-3.9,0.0,0.0195,-0.0150,0.0000,158,232,288,215,0.00,0.01,2.62,0.15,0.0000,1,1,1,0.01,0.00,0.54,-0.06,0.00,0.00,0.16,208,30
715,0.0,0.1,0.1,0.014,0.006,-1.021,4.9,-3.9,0.0,0.0196,-0.0152,0.0000,158,232,290,215,0.00,0.01,2.62,0.16,0.0000,1,1,1,0.01,0.00,0.54,-0.06,0.00,0.00,0.16,208,30
726,-0.4,-0.1,-0.1,0.012,0.001,-1.014,4.9,-3.9,0.0,0.0200,-0.0149,0.0000,158,232,288,214,0.00,0.01,2.62,0.16,0.0000,1,1,1,0.01,0.00,0.54,-0.06,0.00,0.00,0.16,208,30
736,0.0,-0.1,-0.1,0.016,0.000,-1.022,4.9,-3.9,0.0,0.0195,-0.0150,0.0000,158,232,288,215,0.00,0.01,2.62,0.16,0.0000,1,1,1,0.01,0.00,0.54,-0.06,0.00,0.00,0.16,208,30
746,-0.1,0.0,-0.1,0.016,0.001,-1.018,4.9,-3.9,0.0,0.0197,-0.0151,0.0000,158,232,290,216,0.00,0.01,2.62,0.16,0.0000,1,1,1,0.01,0.00,0.54,-0.06,0.00,0.00,0.16,208,30
756,0.1,-0.2,0.0,0.016,0.006,-1.014,4.9,-3.9,0.0,0.0193,-0.0148,0.0000,158,231,287,214,0.00,0.01,2.62,0.16,0.0000,1,1,1,0.01,0.00,0.54,-0.06,0.00,0.00,0.16,208,30
766,0.5,0.0,0.2,0.011,0.009,-1.011,4.9,-3.9,0.0,0.0188,-0.0150,0.0000,158,229,286,215,0.00,0.01,2.62,0.16,0.0000,1,1,1,0.01,0.00,0.54,-0.06,0.00,0.00,0.16,208,30
776,0.4,-0.5,0.1,0.013,0.003,-1.017,4.9,-3.9,0.0,0.0190,-0.0145,0.0000,158,230,285,212,0.00,0.01,2.62,0.16,0.0000,1,1,1,0.01,0.00,0.54,-0.06,0.00,0.00,0.16,208,30
786,0.2,-0.2,-0.1,0.017,0.002,-1.015,4.9,-3.9,0.0,0.0194,-0.0149,0.0000,158,231,288,215,0.00,0.01,2.62,0.16,0.0000,1,1,1,0.01,0.00,0.54,-0.06,0.00,0.00,0.16,208,30
796,0.0,-0.3,0.0,0.010,0.004,-1.020,4.9,-3.9,0.0,0.0195,-0.0147,0.0000,158,232,289,214,0.00,0.01,2.62,0.16,0.0000,1,1,1,0.01,0.00,0.54,-0.06,0.00,0.00,0.16,208,30
806,0.0,-0.4,0.2,0.010,0.008,-1.016,4.9,-3.9,0.0,0.0196,-0.0145,0.0000,158,232,287,213,0.00,0.01,2.62,0.16,0.0000,1,1,1,0.01,0.00,0.54,-0.06,0.00,0.00,0.16,208,30
816,0.0,0.0,0.0,0.015,0.001,-1.012,4.9,-3.9,0.0,0.0195,-0.0149,0.0000,158,232,288,214,0.00,0.01,2.62,0.16,0.0000,1,1,1,0.01,0.00,0.54,-0.06,0.00,0.00,0.16,208,30
827,0.0,-0.2,-0.2,0.019,0.004,-1.018,4.9,-3.9,0.0,0.0196,-0.0148,0.0000,158,232,289,215,0.00,0.01,2.62,0.16,0.0000,1,1,1,0.01,0.00,0.54,-0.06,0.00,0.00,0.16,208,30
837,0.0,0.0,-0.1,0.017,0.004,-1.014,4.9,-3.9,0.0,0.0196,-0.0152,0.0000,158,232,290,215,0.00,0.01,2.62,0.16,0.0000,1,1,1,0.01,0.00,0.54,-0.06,0.00,0.00,0.16,208,30
847,0.0,0.0,0.2,0.012,0.000,-1.017,4.9,-3.9,0.0,0.0194,-0.0151,0.0000,158,230,287,215,0.00,0.01,2.62,0.16,0.0000,1,1,1,0.01,0.00,0.54,-0.06,0.00,0.00,0.16,208,30
857,0.4,-0.2,-0.1,0.015,0.005,-1.017,4.9,-3.9,0.0,0.0190,-0.0147,0.0000,158,230,285,213,0.00,0.01,2.62,0.16,0.0000,1,1,1,0.01,0.00,0.54,-0.06,0.00,0.00,0.16,208,30
867,0.0,0.1,0.0,0.017,0.002,-1.012,4.9,-3.9,0.0,0.0196,-0.0152,0.0000,158,232,289,215,0.00,0.01,2.62,0.16,0.0000,1,1,1,0.01,0.00,0.54,-0.06,0.00,0.00,0.16,208,30
877,0.1,0.1,0.2,0.016,0.004,-1.013,4.9,-3.9,0.0,0.0194,-0.0152,0.0000,158,232,289,216,0.00,0.01,2.62,0.16,0.0000,1,1,1,0.01,0.00,0.54,-0.06,0.00,0.00,0.16,208,30
887,0.0,0.3,0.0,0.014,0.008,-1.023,4.9,-3.9,0.0,0.0194,-0.0154,0.0000,158,232,290,216,0.00,0.01,2.62,0.16,0.0000,1,1,1,0.01,0.00,0.54,-0.06,0.00,0.00,0.16,208,30
897,-0.2,-0.3,-0.2,0.015,0.000,-1.013,4.9,-3.9,0.0,0.0198,-0.0147,0.0000,158,232,286,212,0.00,0.01,2.62,0.16,0.0000,1,1,1,0.01,0.00,0.54,-0.06,0.00,0.00,0.16,208,30
907,-0.1,0.0,0.3,0.017,-0.001,-1.011,4.9,-3.9,0.0,0.0197,-0.0150,0.0000,158,232,289,215,0.00,0.01,2.62,0.16,0.0000,1,1,1,0.01,0.00,0.54,-0.06,0.00,0.00,0.16,208,30
917,0.1,0.1,-0.2,0.017,0.002,-1.016,4.9,-3.9,0.0,0.0194,-0.0153,0.0000,158,232,290,216,0.00,0.01,2.62,0.16,0.0000,1,1,1,0.01,0.00,0.54,-0.06,0.00,0.00,0.16,208,30
927,0.1,-0.1,-0.2,0.014,0.004,-1.020,4.9,-3.9,0.0,0.0193,-0.0149,0.0000,158,231,288,214,0.00,0.01,2.62,0.16,0.0000,1,1,1,0.01,0.00,0.54,-0.06,0.00,0.00,0.16,208,30
938,0.4,-0.4,0.1,0.009,0.012,-1.018,4.9,-3.9,0.0,0.0190,-0.0146,0.0000,158,230,286,214,0.00,0.01,2.62,0.16,0.0000,1,1,1,0.01,0.00,0.54,-0.06,0.00,0.00,0.16,208,30
948,0.4,-0.4,0.1,0.013,0.009,-1.015,4.9,-3.9,0.0,0.0191,-0.0145,0.0000,158,230,285,213,0.00,0.01,2.62,0.16,0.0000,1,1,1,0.01,0.00,0.54,-0.06,0.00,0.00,0.16,208,30
958,0.0,0.1,-0.4,0.014,0.005,-1.008,4.9,-3.9,0.0,0.0194,-0.0152,0.0000,158,231,290,216,0.00,0.01,2.62,0.16,0.0000,1,1,1,0.01,0.00,0.54,-0.06,0.00,0.00,0.16,208,30
968,0.0,0.0,0.0,0.012,0.009,-1.013,4.9,-3.9,0.0,0.0195,-0.0152,0.0000,158,232,290,216,0.00,0.01,2.62,0.16,0.0000,1,1,1,0.01,0.00,0.54,-0.06,0.00,0.00,0.16,208,30
978,0.0,-0.9,0.5,0.016,0.009,-1.023,4.9,-3.9,0.0,0.0196,-0.0142,0.0000,158,232,286,212,0.00,0.01,2.62,0.16,0.0000,1,1,1,0.01,0.00,0.54,-0.06,0.00,0.00,0.16,209,30
988,-0.1,-0.3,-0.4,0.013,0.001,-1.020,4.9,-3.9,0.0,0.0196,-0.0147,0.0000,158,232,289,214,0.00,0.01,2.62,0.16,0.0000,1,1,1,0.01,0.00,0.54,-0.06,0.00,0.00,0.16,209,30
998,0.0,0.1,0.0,0.013,0.000,-1.015,4.9,-3.9,0.0,0.0195,-0.0153,0.0000,158,232,290,216,0.00,0.01,2.62,0.16,0.0000,1,1,1,0.01,0.00,0.54,-0.06,0.00,0.00,0.16,209,30
1008,0.0,0.1,0.1,0.013,0.000,-1.015,4.9,-3.9,0.0,0.0195,-0.0153,0.0000,158,232,290,216,0.00,0.01,2.62,0.16,0.0000,1,1,1,0.01,0.00,0.54,-0.06,0.00,0.00,0.16,209,30
1018,0.0,0.0,-0.1,0.013,0.005,-1.014,4.9,-3.9,0.0,0.0194,-0.0150,0.0000,158,231,287,214,0.00,0.01,2.62,0.16,0.0000,1,1,1,0.01,0.00,0.54,-0.06,0.00,0.00,0.16,209,30
1028,0.1,-0.2,-0.3,0.016,0.007,-1.019,4.9,-3.9,0.0,0.0192,-0.0148,0.0000,158,230,287,214,0.00,0.01,2.62,0.16,0.0000,1,1,1,0.01,0.00,0.54,-0.06,0.00,0.00,0.16,209,30
1038,0.1,0.0,0.5,0.015,0.008,-1.011,4.9,-3.9,0.0,0.0193,-0.0151,0.0000,158,231,288,215,0.00,0.01,2.62,0.16,0.0000,1,1,1,0.01,0.00,0.54,-0.06,0.00,0.00,0.16,209,30
1049,0.3,0.0,0.1,0.014,0.005,-1.012,4.9,-3.9,0.0,0.0192,-0.0148,0.0000,158,231,286,213,0.00,0.01,2.62,0.16,0.0000,1,1,1,0.01,0.00,0.54,-0.06,0.00,0.00,0.16,209,30
1059,-0.1,0.0,-0.4,0.018,0.000,-1.015,4.9,-3.9,0.0,0.0196,-0.0152,0.0000,158,232,290,215,0.00,0.01,2.62,0.16,0.0000,1,1,1,0.01,0.00,0.54,-0.06,0.00,0.00,0.16,209,30
1069,-0.3,0.0,0.1,0.014,0.000,-1.016,4.9,-3.9,0.0,0.0199,-0.0151,0.0000,158,232,289,215,0.00,0.01,2.62,0.16,0.0000,1,1,1,0.01,0.00,0.54,-0.06,0.00,0.00,0.16,209,30
1079,0.0,0.0,0.2,0.018,0.000,-1.019,4.9,-3.9,0.0,0.0193,-0.0150,0.0000,158,231,288,215,0.00,0.01,2.62,0.16,0.0000,1,1,1,0.01,0.00,0.54,-0.06,0.00,0.00,0.16,209,30
1089,0.0,0.1,-0.3,0.015,0.007,-1.007,4.9,-3.9,0.0,0.0194,-0.0152,0.0000,158,231,289,215,0.00,0.01,2.62,0.16,0.0000,1,1,1,0.01,0.00,0.54,-0.06,0.00,0.00,0.16,209,30
1099,0.0,0.1,-0.1,0.015,0.008,-1.013,4.9,-3.9,0.0,0.0194,-0.0152,0.0000,158,232,289,215,0.00,0.01,2.62,0.16,0.0000,1,1,1,0.01,0.00,0.54,-0.06,0.00,0.00,0.16,209,30
1109,0.2,0.0,0.3,0.013,0.007,-1.014,4.9,-3.9,0.0,0.0192,-0.0152,0.0000,158,231,290,216,0.00,0.01,2.62,0.16,0.0000,1,1,1,0.01,0.00,0.54,-0.06,0.00,0.00,0.16,209,30
1119,0.1,-0.4,-0.1,0.014,0.009,-1.022,4.9,-3.9,0.0,0.0193,-0.0146,0.0000,158,231,286,213,0.00,0.01,2.62,0.16,0.0000,1,1,1,0.01,0.00,0.54,-0.06,0.00,0.00,0.16,209,30
1129,0.1,-0.3,-0.2,0.018,0.010,-1.010,4.9,-3.9,0.0,0.0193,-0.0148,0.0000,158,231,287,214,0.00,0.01,2.62,0.16,0.0000,1,1,1,0.01,0.00,0.54,-0.06,0.00,0.00,0.16,209,30
1139,-0.1,0.1,0.0,0.014,0.004,-1.011,4.9,-3.9,0.0,0.0198,-0.0153,0.0000,158,234,292,216,0.00,0.01,2.62,0.16,0.0000,1,1,1,0.01,0.00,0.54,-0.06,0.00,0.00,0.16,209,30
1149,-0.4,-0.1,0.0,0.015,0.003,-1.016,4.9,-3.9,0.0,0.0200,-0.0149,0.0000,158,232,290,216,0.00,0.01,2.62,0.16,0.0000,1,1,1,0.01,0.00,0.54,-0.06,0.00,0.00,0.16,209,30
1160,0.0,-0.2,-0.1,0.012,0.001,-1.015,4.9,-3.9,0.0,0.0195,-0.0148,0.0000,158,231,288,215,0.00,0.01,2.62,0.16,0.0000,1,1,1,0.01,0.00,0.54,-0.06,0.00,0.00,0.16,209,30
1170,0.2,-0.3,0.2,0.016,0.016,-1.020,4.9,-3.9,0.0,0.0192,-0.0147,0.0000,158,231,287,214,0.00,0.01,2.62,0.16,0.0000,1,1,1,0.01,0.00,0.54,-0.06,0.00,0.00,0.16,209,30
1180,0.0,0.1,-0.2,0.017,0.007,-1.009,4.9,-3.9,0.0,0.0194,-0.0151,0.0000,158,231,288,215,0.00,0.01,2.62,0.16,0.0000,1,1,1,0.01,0.00,0.54,-0.06,0.00,0.00,0.16,209,30
1190,0.0,0.3,0.0,0.013,0.004,-1.012,4.9,-3.9,0.0,0.0194,-0.0154,0.0000,158,231,289,216,0.00,0.01,2.62,0.16,0.0000,1,1,1,0.01,0.00,0.54,-0.06,0.00,0.00,0.16,209,30
1200,0.4,-0.4,0.1,0.014,0.012,-1.018,4.9,-3.9,0.0,0.0190,-0.0146,0.0000,158,230,286,214,0.00,0.01,2.62,0.16,0.0000,1,1,1,0.01,0.00,0.54,-0.06,0.00,0.00,0.16,209,30
1210,0.1,-0.3,0.0,0.012,0.012,-1.021,4.9,-3.9,0.0,0.0193,-0.0147,0.0000,158,231,287,214,0.00,0.01,2.62,0.16,0.0000,1,1,1,0.01,0.00,0.54,-0.06,0.00,0.00,0.15,209,30
1220,0.0,-0.2,-0.1,0.016,0.008,-1.010,4.9,-3.9,0.0,0.0195,-0.0148,0.0000,158,232,287,213,0.00,0.01,2.62,0.16,0.0000,1,1,1,0.01,0.00,0.54,-0.06,0.00,0.00,0.15,209,30
1230,0.0,0.5,0.0,0.010,0.004,-1.014,4.9,-3.9,0.0,0.0195,-0.0154,0.0000,158,232,290,216,0.00,0.01,2.62,0.16,0.0000,1,1,1,0.01,0.00,0.54,-0.06,0.00,0.00,0.16,209,30
1240,-0.1,-0.4,0.1,0.012,0.007,-1.012,4.9,-3.9,0.0,0.0196,-0.0146,0.0000,158,231,286,214,0.00,0.01,2.62,0.16,0.0000,1,1,1,0.01,0.00,0.54,-0.06,0.00,0.00,0.15,209,30
1250,0.1,-0.2,0.0,0.018,0.010,-1.021,4.9,-3.9,0.0,0.0193,-0.0148,0.0000,158,231,287,215,0.00,0.01,2.62,0.16,0.0000,1,1,1,0.01,0.00,0.54,-0.06,0.00,0.00,0.15,209,30
1261,0.0,0.0,-0.2,0.014,0.006,-1.013,4.9,-3.9,0.0,0.0195,-0.0151,0.0000,158,232,290,216,0.00,0.01,2.62,0.16,0.0000,1,1,1,0.01,0.00,0.54,-0.06,0.00,0.00,0.15,209,30
1271,0.2,0.2,0.1,0.014,0.009,-1.007,4.9,-3.9,0.0,0.0193,-0.0153,0.0000,158,231,289,215,0.00,0.01,2.62,0.16,0.0000,1,1,1,0.01,0.00,0.54,-0.06,0.00,0.00,0.16,209,30
1281,0.3,-0.1,0.4,0.011,0.012,-1.008,4.9,-3.9,0.0,0.0193,-0.0148,0.0000,158,232,288,214,0.00,0.01,2.62,0.16,0.0000,1,1,1,0.01,0.00,0.54,-0.06,0.00,0.00,0.16,209,30
1291,0.0,-0.5,-0.1,0.014,0.010,-1.017,4.9,-3.9,0.0,0.0195,-0.0145,0.0000,158,232,289,214,0.00,0.01,2.62,0.16,0.0000,1,1,1,0.01,0.00,0.54,-0.06,0.00,0.00,0.16,209,30
1301,0.0,-0.1,-0.2,0.020,0.014,-1.014,4.9,-4.0,0.0,0.0194,-0.0149,0.0000,158,231,288,215,0.00,0.01,2.62,0.16,0.0000,1,1,1,0.01,0.00,0.54,-0.06,0.00,0.00,0.16,209,30
1311,0.0,0.0,0.1,0.015,0.011,-1.013,4.9,-4.0,0.0,0.0197,-0.0151,0.0000,158,233,290,215,0.00,0.01,2.62,0.16,0.0000,1,1,1,0.01,0.00,0.54,-0.06,0.00,0.00,0.16,209,30
1321,-0.2,-0.5,0.1,0.015,0.006,-1.017,4.9,-4.0,0.0,0.0198,-0.0146,0.0000,158,232,288,213,0.00,0.01,2.62,0.16,0.0000,1,1,1,0.01,0.00,0.54,-0.06,0.00,0.00,0.16,209,30
1331,-0.1,0.0,-0.4,0.015,0.004,-1.016,4.9,-4.0,0.0,0.0196,-0.0153,0.0000,158,232,291,216,0.00,0.01,2.62,0.16,0.0000,1,1,1,0.01,0.00,0.54,-0.06,0.00,0.00,0.16,209,30
1341,0.0,-0.1,0.0,0.018,0.017,-1.011,4.9,-4.0,0.0,0.0194,-0.0150,0.0000,158,232,289,215,0.00,0.01,2.62,0.16,0.0000,1,1,1,0.01,0.00,0.54,-0.06,0.00,0.00,0.16,209,30
1351,0.1,0.1,0.1,0.018,0.010,-1.015,4.9,-3.9,0.0,0.0193,-0.0151,0.0000,158,231,288,215,0.00,0.01,2.62,0.16,0.0000,1,1,1,0.01,0.00,0.54,-0.06,0.00,0.00,0.16,209,30
1361,0.1,0.0,-0.1,0.012,0.003,-1.016,4.9,-3.9,0.0,0.0193,-0.0150,0.0000,158,230,287,214,0.00,0.01,2.62,0.16,0.0000,1,1,1,0.01,0.00,0.54,-0.06,0.00,0.00,0.15,209,30
1372,0.0,0.0,-0.2,0.015,0.004,-1.014,4.9,-4.0,0.0,0.0195,-0.0150,0.0000,158,232,289,214,0.00,0.01,2.62,0.16,0.0000,1,1,1,0.01,0.00,0.54,-0.06,0.00,0.00,0.15,209,30
1382,-0.1,0.0,0.2,0.009,0.017,-1.023,4.9,-4.0,0.0,0.0195,-0.0151,0.0000,158,232,289,215,0.00,0.01,2.62,0.16,0.0000,1,1,1,0.01,0.00,0.54,-0.06,0.00,0.00,0.16,209,30
1392,0.2,-0.3,0.1,0.017,0.014,-1.011,4.9,-3.9,0.0,0.0192,-0.0147,0.0000,158,231,286,213,0.00,0.01,2.62,0.16,0.0000,1,1,1,0.01,0.00,0.54,-0.06,0.00,0.00,0.16,209,30
1402,0.0,-0.1,-0.2,0.015,0.006,-1.012,4.9,-3.9,0.0,0.0195,-0.0149,0.0000,158,232,288,214,0.00,0.01,2.62,0.16,0.0000,1,1,1,0.01,0.00,0.54,-0.06,0.00,0.00,0.16,209,30
1412,-0.1,0.0,0.0,0.018,0.002,-1.017,4.9,-4.0,0.0,0.0194,-0.0150,0.0000,158,231,288,215,0.00,0.01,2.62,0.16,0.0000,1,1,1,0.01,0.00,0.54,-0.06,0.00,0.00,0.15,209,30
1422,0.0,0.4,0.2,0.017,0.012,-1.012,4.9,-4.0,0.0,0.0194,-0.0156,0.0000,158,231,290,217,0.00,0.01,2.62,0.16,0.0000,1,1,1,0.01,0.00,0.54,-0.06,0.00,0.00,0.15,209,30
1432,0.1,0.0,-0.3,0.012,0.012,-1.010,4.9,-4.0,0.0,0.0193,-0.0151,0.0000,158,231,288,215,0.00,0.01,2.62,0.16,0.0000,1,1,1,0.01,0.00,0.54,-0.06,0.00,0.00,0.15,209,30
1442,0.2,-0.1,0.3,0.018,0.004,-1.013,4.9,-4.0,0.0,0.0192,-0.0149,0.0000,158,231,287,214,0.00,0.01,2.62,0.16,0.0000,1,1,1,0.01,0.00,0.54,-0.06,0.00,0.00,0.16,209,30
1452,0.2,0.1,0.2,0.012,0.005,-1.008,4.9,-4.0,0.0,0.0192,-0.0152,0.0000,158,232,289,215,0.00,0.01,2.62,0.16,0.0000,1,1,1,0.01,0.00,0.54,-0.06,0.00,0.00,0.16,209,30
1462,0.0,0.0,-0.3,0.011,0.016,-1.012,4.9,-4.0,0.0,0.0195,-0.0152,0.0000,158,232,290,216,0.00,0.01,2.62,0.16,0.0000,1,1,1,0.01,0.00,0.54,-0.06,0.00,0.00,0.16,209,30
1472,0.1,-0.1,0.2,0.018,0.016,-1.007,4.9,-4.0,0.0,0.0194,-0.0150,0.0000,158,232,289,216,0.00,0.01,2.62,0.16,0.0000,1,1,1,0.01,0.00,0.54,-0.06,0.00,0.00,0.16,209,30
1483,-0.2,-0.2,0.4,0.014,0.008,-1.007,4.9,-4.0,0.0,0.0197,-0.0149,0.0000,158,233,290,215,0.00,0.01,2.62,0.16,0.0000,1,1,1,0.01,0.00,0.54,-0.06,0.00,0.00,0.16,209,30
1493,-0.2,-0.1,-0.2,0.020,0.005,-1.012,4.9,-4.0,0.0,0.0197,-0.0150,0.0000,158,232,289,215,0.00,0.01,2.62,0.16,0.0000,1,1,1,0.01,0.00,0.54,-0.06,0.00,0.00,0.16,209,30
1503,-0.1,0.2,-0.2,0.010,0.005,-1.011,4.9,-4.0,0.0,0.0196,-0.0153,0.0000,158,232,290,216,0.00,0.01,2.62,0.16,0.0000,1,1,1,0.01,0.00,0.54,-0.06,0.00,0.00,0.16,209,30
1513,0.1,-0.1,0.2,0.013,0.017,-1.012,4.9,-3.9,0.0,0.0194,-0.0149,0.0000,158,232,288,215,0.00,0.01,2.62,0.16,0.0000,1,1,1,0.01,0.00,0.54,-0.06,0.00,0.00,0.16,209,30
1523,0.2,-0.3,0.0,0.018,0.007,-1.019,4.9,-3.9,0.0,0.0191,-0.0146,0.0000,158,230,285,213,0.00,0.01,2.62,0.16,0.0000,1,1,1,0.01,0.00,0.54,-0.06,0.00,0.00,0.15,209,30
1533,0.4,-0.1,-0.1,0.010,0.008,-1.013,4.9,-3.9,0.0,0.0191,-0.0148,0.0000,158,230,286,214,0.00,0.01,2.62,0.16,0.0000,1,1,1,0.01,0.00,0.54,-0.06,0.00,0.00,0.16,209,30
1543,0.1,0.0,-0.2,0.010,0.007,-1.012,4.9,-3.9,0.0,0.0194,-0.0151,0.0000,158,231,288,215,0.00,0.01,2.62,0.16,0.0000,1,1,1,0.01,0.00,0.54,-0.06,0.00,0.00,0.16,209,30
1553,0.0,-0.5,0.1,0.007,0.018,-1.018,4.9,-3.9,0.0,0.0195,-0.0145,0.0000,158,232,287,213,0.00,0.01,2.62,0.16,0.0000,1,1,1,0.01,0.00,0.54,-0.06,0.00,0.00,0.16,209,30
1563,-0.1,-0.4,0.0,0.016,0.015,-1.007,4.9,-3.9,0.0,0.0196,-0.0146,0.0000,158,232,287,213,0.00,0.01,2.62,0.16,0.0000,1,1,1,0.01,0.00,0.54,-0.06,0.00,0.00,0.16,209,30
1573,0.0,0.0,-0.2,0.016,0.000,-1.008,4.9,-3.9,0.0,0.0194,-0.0150,0.0000,158,232,288,214,0.00,0.01,2.62,0.16,0.0000,1,1,1,0.01,0.00,0.54,-0.06,0.00,0.00,0.15,209,30
1583,0.2,-0.3,0.3,0.011,0.005,-1.023,4.9,-3.9,0.0,0.0192,-0.0147,0.0000,158,231,286,214,0.00,0.01,2.62,0.16,0.0000,1,1,1,0.01,0.00,0.54,-0.06,0.00,0.00,0.15,209,30
1594,-0.1,0.0,0.1,0.014,0.008,-1.014,4.9,-3.9,0.0,0.0196,-0.0151,0.0000,158,232,289,215,0.00,0.01,2.62,0.16,0.0000,1,1,1,0.01,0.00,0.54,-0.06,0.00,0.00,0.15,209,30
1604,-0.1,0.0,-0.2,0.014,0.013,-1.009,4.9,-3.9,0.0,0.0197,-0.0151,0.0000,158,232,290,215,0.00,0.01,2.62,0.16,0.0000,1,1,1,0.01,0.00,0.54,-0.06,0.00,0.00,0.15,209,30
1614,0.2,0.0,0.0,0.015,0.014,-1.014,4.9,-3.9,0.0,0.0193,-0.0151,0.0000,158,231,288,215,0.00,0.01,2.62,0.16,0.0000,1,1,1,0.01,0.00,0.54,-0.06,0.00,0.00,0.15,209,30
1624,0.1,0.1,0.3,0.012,0.008,-1.013,4.9,-3.9,0.0,0.0193,-0.0151,0.0000,158,231,288,215,0.00,0.01,2.62,0.16,0.0000,1,1,1,0.01,0.00,0.54,-0.06,0.00,0.00,0.15,209,30
1634,0.0,-0.2,-0.1,0.016,0.009,-1.015,4.9,-3.9,0.0,0.0196,-0.0149,0.0000,158,232,289,215,0.00,0.01,2.62,0.16,0.0000,1,1,1,0.01,0.00,0.54,-0.06,0.00,0.00,0.15,209,30
1644,0.0,0.1,-0.2,0.015,0.012,-1.017,4.9,-3.9,0.0,0.0195,-0.0152,0.0000,158,232,290,216,0.00,0.01,2.62,0.16,0.0000,1,1,1,0.01,0.00,0.54,-0.06,0.00,0.00,0.15,209,30
1654,-0.2,0.0,0.0,0.013,0.009,-1.008,4.9,-3.9,0.0,0.0198,-0.0150,0.0000,158,233,290,215,0.00,0.01,2.62,0.16,0.0000,1,1,1,0.01,0.00,0.54,-0.06,0.00,0.00,0.15,209,30
1664,0.0,-0.1,0.0,0.014,0.006,-1.015,4.9,-3.9,0.0,0.0194,-0.0149,0.0000,158,231,288,215,0.00,0.01,2.62,0.16,0.0000,1,1,1,0.01,0.00,0.54,-0.06,0.00,0.00,0.15,209,30
1674,0.0,0.0,0.0,0.014,0.002,-1.013,4.9,-3.9,0.0,0.0195,-0.0150,0.0000,158,231,289,215,0.00,0.01,2.62,0.16,0.0000,1,1,1,0.01,0.00,0.54,-0.06,0.00,0.00,0.15,209,30
1684,0.0,0.0,0.0,0.015,0.015,-1.011,4.9,-3.9,0.0,0.0195,-0.0151,0.0000,158,231,289,215,0.00,0.01,2.62,0.16,0.0000,1,1,1,0.01,0.00,0.54,-0.06,0.00,0.00,0.15,209,30
1694,0.3,-0.1,-0.1,0.013,0.014,-1.012,4.9,-3.9,0.0,0.0191,-0.0149,0.0000,158,230,286,214,0.00,0.01,2.62,0.16,0.0000,1,1,1,0.01,0.00,0.54,-0.06,0.00,0.00,0.15,209,30
1705,0.5,-0.4,0.1,0.010,0.013,-1.010,4.9,-3.9,0.0,0.0190,-0.0146,0.0000,158,230,285,213,0.00,0.01,2.62,0.16,0.0000,1,1,1,0.01,0.00,0.54,-0.06,0.00,0.00,0.15,209,30
1715,0.0,-0.4,0.1,0.018,0.005,-1.006,4.9,-3.9,0.0,0.0196,-0.0147,0.0000,158,232,288,214,0.00,0.01,2.62,0.16,0.0000,1,1,1,0.01,0.00,0.54,-0.06,0.00,0.00,0.15,209,30
1725,0.0,-0.3,-0.2,0.009,0.013,-1.017,4.9,-3.9,0.0,0.0195,-0.0147,0.0000,158,232,288,214,0.00,0.01,2.62,0.16,0.0000,1,1,1,0.01,0.00,0.54,-0.06,0.00,0.00,0.15,209,30
1735,0.0,-0.4,-0.1,0.015,0.015,-1.012,4.9,-3.9,0.0,0.0194,-0.0146,0.0000,158,231,287,213,0.00,0.01,2.62,0.16,0.0000,1,1,1,0.01,0.00,0.54,-0.06,0.00,0.00,0.15,209,30
1745,0.0,-0.2,0.2,0.013,0.003,-1.011,4.9,-3.9,0.0,0.0195,-0.0148,0.0000,158,232,287,214,0.00,0.01,2.62,0.16,0.0000,1,1,1,0.01,0.00,0.54,-0.06,0.00,0.00,0.15,209,30
1755,0.0,-0.4,0.0,0.013,0.006,-1.011,4.9,-3.9,0.0,0.0195,-0.0146,0.0000,158,232,287,213,0.00,0.01,2.62,0.15,0.0000,1,1,1,0.01,0.00,0.54,-0.06,0.00,0.00,0.15,209,30
1765,0.0,0.4,-0.4,0.011,0.012,-1.012,4.9,-3.9,0.0,0.0195,-0.0154,0.0000,158,231,290,216,0.00,0.01,2.62,0.15,0.0000,1,1,1,0.01,0.00,0.54,-0.06,0.00,0.00,0.15,209,30
1775,0.0,0.1,0.0,0.012,0.011,-1.013,4.9,-3.9,0.0,0.0195,-0.0152,0.0000,158,231,289,215,0.00,0.01,2.62,0.15,0.0000,1,1,1,0.01,0.00,0.54,-0.06,0.00,0.00,0.15,209,30
1785,0.2,-0.4,0.3,0.019,0.013,-1.016,4.9,-3.9,0.0,0.0192,-0.0146,0.0000,158,231,286,213,0.00,0.01,2.62,0.15,0.0000,1,1,1,0.01,0.00,0.54,-0.06,0.00,0.00,0.15,209,30
1795,-0.1,0.0,0.1,0.018,0.004,-1.006,4.9,-3.9,0.0,0.0196,-0.0150,0.0000,158,232,289,214,0.00,0.01,2.62,0.15,0.0000,1,1,1,0.01,0.00,0.54,-0.06,0.00,0.00,0.15,209,30
1805,-0.2,0.2,-0.4,0.013,0.004,-1.012,4.9,-3.9,0.0,0.0198,-0.0153,0.0000,158,233,291,216,0.00,0.01,2.62,0.15,0.0000,1,1,1,0.01,0.00,0.54,-0.06,0.00,0.00,0.15,209,30
1816,0.1,0.2,0.2,0.012,0.012,-1.016,4.9,-3.9,0.0,0.0195,-0.0154,0.0000,158,232,290,216,0.00,0.01,2.62,0.15,0.0000,1,1,1,0.01,0.00,0.54,-0.06,0.00,0.00,0.15,209,30
1826,-0.1,-0.4,0.0,0.015,0.006,-1.015,4.9,-3.9,0.0,0.0196,-0.0147,0.0000,158,232,288,214,0.00,0.01,2.62,0.15,0.0000,1,1,1,0.01,0.00,0.54,-0.06,0.00,0.00,0.15,209,30
1836,-0.1,0.0,-0.1,0.017,0.008,-1.014,4.9,-3.9,0.0,0.0197,-0.0150,0.0000,158,231,288,214,0.00,0.01,2.62,0.15,0.0000,1,1,1,0.01,0.00,0.54,-0.06,0.00,0.00,0.15,209,30
1846,0.0,0.4,-0.2,0.012,0.006,-1.011,4.9,-3.9,0.0,0.0194,-0.0155,0.0000,158,231,290,216,0.00,0.01,2.62,0.15,0.0000,1,1,1,0.01,0.00,0.54,-0.06,0.00,0.00,0.15,209,30
1856,0.2,0.0,0.2,0.011,0.002,-1.012,4.9,-3.9,0.0,0.0192,-0.0151,0.0000,158,231,288,215,0.00,0.01,2.62,0.15,0.0000,1,1,1,0.01,0.00,0.54,-0.06,0.00,0.00,0.15,209,30
1866,0.3,-0.1,-0.1,0.013,0.012,-1.021,4.9,-3.9,0.0,0.0192,-0.0150,0.0000,158,230,288,215,0.00,0.01,2.62,0.15,0.0000,1,1,1,0.01,0.00,0.54,-0.06,0.00,0.00,0.15,209,30
1876,0.4,-0.3,0.0,0.014,0.015,-1.014,4.9,-3.9,0.0,0.0191,-0.0147,0.0000,158,230,286,214,0.00,0.01,2.62,0.15,0.0000,1,1,1,0.01,0.00,0.54,-0.06,0.00,0.00,0.15,209,30
1886,0.0,0.0,0.1,0.011,0.005,-1.009,4.9,-3.9,0.0,0.0195,-0.0150,0.0000,158,232,289,215,0.00,0.01,2.62,0.15,0.0000,1,1,1,0.01,0.00,0.54,-0.06,0.00,0.00,0.15,209,30
1896,0.3,-0.1,0.0,0.008,0.008,-1.013,4.9,-3.9,0.0,0.0192,-0.0149,0.0000,158,232,288,214,0.00,0.01,2.62,0.15,0.0000,1,1,1,0.01,0.00,0.54,-0.06,0.00,0.00,0.15,209,30
1906,0.0,-0.4,0.0,0.015,0.010,-1.016,4.9,-3.9,0.0,0.0195,-0.0146,0.0000,158,232,288,214,0.00,0.01,2.62,0.15,0.0000,1,1,1,0.01,0.00,0.54,-0.06,0.00,0.00,0.15,209,30
1916,0.1,0.0,-0.1,0.015,0.010,-1.011,4.9,-3.9,0.0,0.0193,-0.0151,0.0000,158,231,289,215,0.00,0.01,2.62,0.15,0.0000,1,1,1,0.01,0.00,0.54,-0.06,0.00,0.00,0.15,209,30
1926,0.1,-0.2,0.1,0.015,0.012,-1.009,4.9,-3.9,0.0,0.0194,-0.0148,0.0000,158,231,287,214,0.00,0.01,2.62,0.15,0.0000,1,1,1,0.01,0.00,0.54,-0.06,0.00,0.00,0.15,209,30
1937,0.1,0.0,0.2,0.015,0.005,-1.001,4.9,-3.9,0.0,0.0194,-0.0151,0.0000,158,232,288,215,0.00,0.01,2.62,0.15,0.0000,1,1,1,0.01,0.00,0.54,-0.06,0.00,0.00,0.15,209,30
1947,0.0,0.0,-0.2,0.013,0.008,-1.015,4.9,-3.9,0.0,0.0195,-0.0151,0.0000,158,232,289,215,0.00,0.01,2.62,0.15,0.0000,1,1,1,0.01,0.00,0.54,-0.06,0.00,0.00,0.15,209,30
1957,0.2,-0.1,-0.2,0.014,0.008,-1.019,4.9,-3.9,0.0,0.0193,-0.0150,0.0000,158,231,288,215,0.00,0.01,2.62,0.15,0.0000,1,1,1,0.01,0.00,0.54,-0.06,0.00,0.00,0.15,209,30
1967,0.0,0.0,0.4,0.013,0.005,-1.016,4.9,-3.9,0.0,0.0194,-0.0149,0.0000,158,231,287,214,0.00,0.01,2.62,0.15,0.0000,1,1,1,0.01,0.00,0.54,-0.06,0.00,0.00,0.15,209,30
1977,0.0,-0.3,-0.2,0.014,0.007,-1.010,4.9,-3.9,0.0,0.0195,-0.0147,0.0000,158,231,286,213,0.00,0.01,2.62,0.15,0.0000,1,1,1,0.01,0.00,0.54,-0.06,0.00,0.00,0.15,209,30
1987,0.0,0.2,-0.3,0.014,0.008,-1.014,4.9,-3.9,0.0,0.0196,-0.0153,0.0000,158,232,291,216,0.00,0.01,2.62,0.15,0.0000,1,1,1,0.01,0.00,0.54,-0.06,0.00,0.00,0.15,209,30
1997,-0.1,0.1,0.3,0.014,0.008,-1.009,4.9,-3.9,0.0,0.0197,-0.0153,0.0000,158,232,289,215,0.00,0.01,2.62,0.15,0.0000,1,1,1,0.01,0.00,0.54,-0.06,0.00,0.00,0.15,209,30
2007,-0.1,0.0,0.0,0.015,0.005,-1.020,4.9,-3.9,0.0,0.0195,-0.0151,0.0000,158,232,289,215,0.00,0.01,2.62,0.15,0.0000,1,1,1,0.01,0.00,0.54,-0.06,0.00,0.00,0.15,209,30
2017,0.0,-0.1,-0.2,0.015,0.002,-1.013,4.9,-3.9,0.0,0.0194,-0.0149,0.0000,158,231,287,214,0.00,0.01,2.62,0.15,0.0000,1,1,1,0.01,0.00,0.54,-0.06,0.00,0.00,0.15,209,30
2027,0.0,-0.2,0.1,0.011,0.003,-1.010,4.9,-3.9,0.0,0.0194,-0.0148,0.0000,158,232,287,214,0.00,0.01,2.62,0.15,0.0000,1,1,1,0.01,0.00,0.54,-0.06,0.00,0.00,0.15,209,30
2037,0.4,0.2,-0.1,0.009,0.011,-1.019,4.9,-3.9,0.0,0.0190,-0.0153,0.0000,158,230,289,216,0.00,0.01,2.62,0.15,0.0000,1,1,1,0.01,0.00,0.54,-0.06,0.00,0.00,0.15,208,30
2048,0.3,-0.3,0.0,0.015,0.012,-1.026,4.9,-3.9,0.0,0.0191,-0.0147,0.0000,158,230,286,214,0.00,0.01,2.62,0.15,0.0000,1,1,1,0.01,0.00,0.54,-0.06,0.00,0.00,0.15,208,30
2058,0.0,-0.6,0.0,0.016,0.007,-1.011,4.9,-3.9,0.0,0.0194,-0.0144,0.0000,158,231,286,213,0.00,0.01,2.62,0.15,0.0000,1,1,1,0.01,0.00,0.54,-0.06,0.00,0.00,0.15,208,30
2068,0.0,-0.1,0.0,0.012,0.004,-1.008,4.9,-3.9,0.0,0.0195,-0.0149,0.0000,158,232,289,215,0.00,0.01,2.62,0.15,0.0000,1,1,1,0.01,0.00,0.54,-0.06,0.00,0.00,0.15,208,30
2078,0.0,-0.1,-0.1,0.010,0.010,-1.015,4.9,-3.9,0.0,0.0194,-0.0149,0.0000,158,232,289,214,0.00,0.01,2.62,0.15,0.0000,1,1,1,0.01,0.00,0.54,-0.06,0.00,0.00,0.15,208,30
2088,0.1,0.0,-0.1,0.013,0.008,-1.013,4.9,-3.9,0.0,0.0194,-0.0151,0.0000,158,231,288,215,0.00,0.01,2.62,0.15,0.0000,1,1,1,0.01,0.00,0.54,-0.06,0.00,0.00,0.15,208,30
2098,0.2,-0.5,0.2,0.016,0.009,-1.017,4.9,-3.9,0.0,0.0192,-0.0145,0.0000,158,231,287,214,0.00,0.01,2.62,0.15,0.0000,1,1,1,0.01,0.00,0.54,-0.06,0.00,0.00,0.15,208,30
2108,0.1,-0.1,-0.3,0.009,-0.001,-1.015,4.9,-3.9,0.0,0.0193,-0.0149,0.0000,158,231,287,214,0.00,0.01,2.62,0.15,0.0000,1,1,1,0.01,0.00,0.54,-0.06,0.00,0.00,0.15,208,30
2118,0.0,0.4,0.1,0.008,0.004,-1.008,4.9,-3.9,0.0,0.0195,-0.0154,0.0000,158,232,290,216,0.00,0.01,2.62,0.15,0.0000,1,1,1,0.01,0.00,0.54,-0.06,0.00,0.00,0.15,208,30
2128,0.3,-0.1,0.2,0.017,0.008,-1.012,4.9,-3.9,0.0,0.0192,-0.0150,0.0000,158,231,288,215,0.00,0.01,2.62,0.15,0.0000,1,1,1,0.01,0.00,0.54,-0.06,0.00,0.00,0.15,208,30
2138,-0.1,-0.3,0.0,0.017,0.007,-1.019,4.9,-3.9,0.0,0.0195,-0.0147,0.0000,158,231,288,214,0.00,0.01,2.61,0.15,0.0000,1,1,1,0.01,0.00,0.54,-0.06,0.00,0.00,0.15,208,30
2148,0.0,0.0,-0.2,0.016,0.006,-1.014,4.9,-3.9,0.0,0.0195,-0.0150,0.0000,158,231,288,214,0.00,0.01,2.61,0.15,0.0000,1,1,1,0.01,0.00,0.54,-0.06,0.00,0.00,0.15,208,30
2159,-0.1,0.4,0.1,0.011,0.002,-1.015,4.9,-3.9,0.0,0.0196,-0.0155,0.0000,158,233,290,216,0.00,0.01,2.61,0.15,0.0000,1,1,1,0.01,0.00,0.54,-0.06,0.00,0.00,0.15,208,30
2169,-0.1,0.0,0.0,0.015,0.000,-1.008,4.9,-3.9,0.0,0.0196,-0.0149,0.0000,158,232,288,214,0.00,0.01,2.61,0.15,0.0000,1,1,1,0.01,0.00,0.54,-0.06,0.00,0.00,0.15,208,30
2179,0.0,-0.1,-0.1,0.016,0.002,-1.019,4.9,-3.9,0.0,0.0195,-0.0150,0.0000,158,231,289,216,0.00,0.01,2.61,0.15,0.0000,1,1,1,0.01,0.00,0.54,-0.06,0.00,0.00,0.15,208,30
2189,0.1,0.0,0.0,0.011,0.006,-1.018,4.9,-3.9,0.0,0.0193,-0.0151,0.0000,158,231,289,216,0.00,0.01,2.61,0.15,0.0000,1,1,1,0.01,0.00,0.54,-0.06,0.00,0.00,0.15,209,30
2199,0.1,0.0,0.2,0.013,0.006,-1.013,4.9,-3.9,0.0,0.0193,-0.0149,0.0000,158,231,287,214,0.00,0.01,2.61,0.15,0.0000,1,1,1,0.01,0.00,0.54,-0.06,0.00,0.00,0.15,209,30
2209,0.3,0.0,0.0,0.009,0.003,-1.010,4.9,-3.9,0.0,0.0191,-0.0151,0.0000,158,231,287,214,0.00,0.01,2.61,0.15,0.0000,1,1,1,0.01,0.00,0.54,-0.06,0.00,0.00,0.15,209,30
2219,0.0,-0.3,0.0,0.013,0.007,-1.009,4.9,-3.9,0.0,0.0194,-0.0148,0.0000,158,232,288,214,0.00,0.01,2.61,0.15,0.0000,1,1,1,0.01,0.00,0.54,-0.06,0.00,0.00,0.15,209,30
2229,0.0,-0.1,-0.2,0.015,0.008,-1.014,4.9,-3.9,0.0,0.0194,-0.0150,0.0000,158,231,288,215,0.00,0.01,2.61,0.15,0.0000,1,1,1,0.01,0.00,0.54,-0.06,0.00,0.00,0.15,209,30
2239,0.0,-0.4,0.1,0.012,0.002,-1.025,4.9,-3.9,0.0,0.0195,-0.0146,0.0000,158,232,288,214,0.00,0.01,2.61,0.15,0.0000,1,1,1,0.01,0.00,0.54,-0.06,0.00,0.00,0.15,209,30
2249,0.0,-0.5,0.0,0.016,0.012,-1.019,4.9,-3.9,0.0,0.0195,-0.0145,0.0000,158,232,287,213,0.00,0.01,2.61,0.15,0.0000,1,1,1,0.01,0.00,0.54,-0.06,0.00,0.00,0.15,209,30
2259,0.1,0.0,-0.5,0.014,0.007,-1.010,4.9,-4.0,0.0,0.0194,-0.0153,0.0000,158,231,290,216,0.00,0.01,2.61,0.15,0.0000,1,1,1,0.01,0.00,0.54,-0.06,0.00,0.00,0.15,209,30
2270,0.0,0.0,0.1,0.015,0.006,-1.017,4.9,-4.0,0.0,0.0196,-0.0151,0.0000,158,232,289,216,0.00,0.01,2.61,0.15,0.0000,1,1,1,0.01,0.00,0.54,-0.06,0.00,0.00,0.15,209,30
2280,0.0,0.0,0.0,0.009,0.003,-1.019,4.9,-3.9,0.0,0.0195,-0.0150,0.0000,158,231,287,214,0.00,0.01,2.61,0.15,0.0000,1,1,1,0.01,0.00,0.54,-0.06,0.00,0.00,0.15,209,30
2290,0.4,-0.5,0.0,0.012,0.009,-1.016,4.9,-3.9,0.0,0.0191,-0.0145,0.0000,158,230,286,213,0.00,0.01,2.61,0.15,0.0000,1,1,1,0.01,0.00,0.54,-0.06,0.00,0.00,0.15,209,30
2300,0.1,0.0,0.0,0.013,0.001,-1.014,4.9,-3.9,0.0,0.0193,-0.0150,0.0000,158,231,287,214,0.00,0.01,2.61,0.15,0.0000,1,1,1,0.01,0.00,0.54,-0.06,0.00,0.00,0.15,209,30
2310,0.1,0.0,0.1,0.013,0.008,-1.020,4.9,-3.9,0.0,0.0193,-0.0151,0.0000,158,231,288,215,0.00,0.01,2.61,0.15,0.0000,1,1,1,0.01,0.00,0.54,-0.06,0.00,0.00,0.15,209,30
2320,0.0,-0.2,0.1,0.017,0.005,-1.013,4.9,-4.0,0.0,0.0194,-0.0148,0.0000,158,231,287,214,0.00,0.01,2.61,0.15,0.0000,1,1,1,0.01,0.00,0.54,-0.06,0.00,0.00,0.15,209,30
2330,-0.1,-0.1,-0.2,0.015,0.005,-1.018,4.9,-4.0,0.0,0.0196,-0.0149,0.0000,158,232,289,214,0.00,0.01,2.61,0.15,0.0000,1,1,1,0.01,0.00,0.54,-0.06,0.00,0.00,0.15,209,30
2340,0.0,-0.2,0.1,0.015,0.006,-1.007,4.9,-4.0,0.0,0.0195,-0.0148,0.0000,158,232,287,214,0.00,0.01,2.61,0.15,0.0000,1,1,1,0.01,0.00,0.54,-0.06,0.00,0.00,0.15,209,30
2350,0.1,0.2,0.1,0.014,-0.001,-1.013,4.9,-4.0,0.0,0.0193,-0.0153,0.0000,158,231,289,216,0.00,0.01,2.61,0.15,0.0000,1,1,1,0.01,0.00,0.54,-0.06,0.00,0.00,0.15,209,30
2360,0.0,0.1,-0.2,0.007,0.008,-1.019,4.9,-4.0,0.0,0.0194,-0.0152,0.0000,158,231,289,216,0.00,0.01,2.61,0.15,0.0000,1,1,1,0.01,0.00,0.54,-0.06,0.00,0.00,0.15,209,30
2370,0.1,-0.3,0.0,0.018,0.003,-1.016,4.9,-4.0,0.0,0.0193,-0.0147,0.0000,158,231,287,214,0.00,0.01,2.61,0.15,0.0000,1,1,1,0.01,0.00,0.54,-0.06,0.00,0.00,0.15,209,30
2380,0.1,0.0,0.0,0.013,0.000,-1.011,4.9,-4.0,0.0,0.0194,-0.0151,0.0000,158,232,289,215,0.00,0.01,2.61,0.15,0.0000,1,1,1,0.01,0.00,0.54,-0.06,0.00,0.00,0.15,209,30
2390,0.2,0.0,0.0,0.014,0.003,-1.017,4.9,-4.0,0.0,0.0192,-0.0151,0.0000,158,231,288,215,0.00,0.01,2.61,0.15,0.0000,1,1,1,0.01,0.00,0.54,-0.06,0.00,0.00,0.15,209,30
2401,0.0,0.0,0.0,0.015,0.005,-1.015,4.9,-4.0,0.0,0.0195,-0.0152,0.0000,158,232,289,215,0.00,0.01,2.61,0.15,0.0000,1,1,1,0.01,0.00,0.54,-0.06,0.00,0.00,0.15,209,30
2411,-0.2,0.0,0.0,0.010,0.003,-1.014,4.9,-4.0,0.0,0.0198,-0.0152,0.0000,158,233,292,216,0.00,0.01,2.61,0.15,0.0000,1,1,1,0.01,0.00,0.54,-0.06,0.00,0.00,0.15,209,30
2421,-0.1,-0.2,-0.1,0.016,0.002,-1.017,4.9,-4.0,0.0,0.0197,-0.0148,0.0000,158,232,289,214,0.00,0.01,2.61,0.15,0.0000,1,1,1,0.01,0.00,0.54,-0.06,0.00,0.00,0.15,209,30
2431,0.2,0.2,0.0,0.012,0.002,-1.013,4.9,-4.0,0.0,0.0194,-0.0152,0.0000,158,232,289,215,0.00,0.01,2.61,0.15,0.0000,1,1,1,0.01,0.00,0.54,-0.06,0.00,0.00,0.15,209,30
2441,-0.2,0.0,0.1,0.010,0.007,-1.020,4.9,-4.0,0.0,0.0197,-0.0151,0.0000,158,232,289,215,0.00,0.01,2.61,0.15,0.0000,1,1,1,0.01,0.00,0.54,-0.06,0.00,0.00,0.15,209,30
2451,0.0,0.0,-0.3,0.014,0.001,-1.024,4.9,-4.0,0.0,0.0195,-0.0151,0.0000,158,231,288,215,0.00,0.01,2.61,0.15,0.0000,1,1,1,0.01,0.00,0.54,-0.06,0.00,0.00,0.15,209,30
2461,0.2,0.0,0.1,0.013,0.009,-1.011,4.9,-4.0,0.0,0.0194,-0.0151,0.0000,158,231,288,215,0.00,0.01,2.61,0.15,0.0000,1,1,1,0.01,0.00,0.54,-0.06,0.00,0.00,0.15,209,30
2471,0.2,-0.2,0.1,0.013,0.004,-1.013,4.9,-4.0,0.0,0.0193,-0.0148,0.0000,158,231,287,214,0.00,0.01,2.61,0.15,0.0000,1,1,1,0.01,0.00,0.54,-0.06,0.00,0.00,0.15,209,30
2481,0.3,-0.4,-0.1,0.007,0.005,-1.030,4.9,-4.0,0.0,0.0191,-0.0146,0.0000,158,230,286,213,0.00,0.01,2.61,0.15,0.0000,1,1,1,0.01,0.00,0.54,-0.06,0.00,0.00,0.15,209,30
2491,-0.2,-0.1,-0.2,0.012,0.007,-1.016,4.9,-4.0,0.0,0.0196,-0.0148,0.0000,158,232,288,214,0.00,0.01,2.61,0.15,0.0000,1,1,1,0.01,0.00,0.54,-0.06,0.00,0.00,0.15,209,30
2501,0.0,0.0,0.1,0.013,0.004,-1.017,4.9,-4.0,0.0,0.0195,-0.0151,0.0000,158,231,288,215,0.00,0.01,2.61,0.15,0.0000,1,1,1,0.01,0.00,0.54,-0.06,0.00,0.00,0.15,209,30
2512,0.0,-0.5,0.2,0.015,0.003,-1.013,4.9,-4.0,0.0,0.0194,-0.0146,0.0000,158,232,287,213,0.00,0.01,2.61,0.15,0.0000,1,1,1,0.01,0.00,0.54,-0.06,0.00,0.00,0.15,209,30
2522,0.2,-0.1,-0.1,0.013,0.000,-1.018,4.9,-4.0,0.0,0.0192,-0.0149,0.0000,158,231,287,214,0.00,0.01,2.61,0.15,0.0000,1,1,1,0.01,0.00,0.54,-0.06,0.00,0.00,0.15,209,30
2532,0.0,0.2,-0.2,0.011,0.001,-1.022,4.9,-4.0,0.0,0.0195,-0.0153,0.0000,158,232,290,216,0.00,0.01,2.61,0.15,0.0000,1,1,1,0.01,0.00,0.54,-0.06,0.00,0.00,0.15,209,30
2542,-0.1,0.2,0.3,0.015,0.007,-1.016,4.9,-4.0,0.0,0.0195,-0.0153,0.0000,158,231,289,216,0.00,0.01,2.61,0.15,0.0000,1,1,1,0.01,0.00,0.54,-0.06,0.00,0.00,0.15,209,30
2552,0.1,-0.1,0.2,0.012,0.002,-1.009,4.9,-3.9,0.0,0.0193,-0.0149,0.0000,158,231,288,214,0.00,0.01,2.61,0.15,0.0000,1,1,1,0.01,0.00,0.54,-0.06,0.00,0.00,0.15,209,30
2562,0.3,-0.2,-0.2,0.016,0.000,-1.018,4.9,-4.0,0.0,0.0192,-0.0148,0.0000,158,231,287,214,0.00,0.01,2.61,0.15,0.0000,1,1,1,0.01,0.00,0.54,-0.06,0.00,0.00,0.15,209,30
2572,0.0,0.2,-0.2,0.015,0.009,-1.022,4.9,-4.0,0.0,0.0196,-0.0153,0.0000,158,232,290,216,0.00,0.01,2.61,0.15,0.0000,1,1,1,0.01,0.00,0.54,-0.06,0.00,0.00,0.15,209,30
2582,-0.4,0.2,0.0,0.015,0.000,-1.016,4.9,-4.0,0.0,0.0199,-0.0153,0.0000,158,233,291,216,0.00,0.01,2.61,0.15,0.0000,1,1,1,0.01,0.00,0.54,-0.06,0.00,0.00,0.15,209,30
2592,0.0,-0.2,0.1,0.018,0.002,-1.009,4.9,-3.9,0.0,0.0195,-0.0149,0.0000,158,232,289,214,0.00,0.01,2.61,0.15,0.0000,1,1,1,0.01,0.00,0.54,-0.06,0.00,0.00,0.15,209,30
2602,0.1,0.0,-0.1,0.013,0.000,-1.010,4.9,-4.0,0.0,0.0194,-0.0151,0.0000,158,231,289,215,0.00,0.01,2.61,0.15,0.0000,1,1,1,0.01,0.00,0.54,-0.06,0.00,0.00,0.15,209,30
2612,-0.1,0.1,0.0,0.013,0.004,-1.020,4.9,-4.0,0.0,0.0196,-0.0152,0.0000,158,232,289,216,0.00,0.01,2.61,0.15,0.0000,1,1,1,0.01,0.00,0.54,-0.06,0.00,0.00,0.15,209,30
2623,0.1,0.0,-0.1,0.010,0.007,-1.031,4.9,-3.9,0.0,0.0192,-0.0151,0.0000,158,230,287,215,0.00,0.01,2.61,0.15,0.0000,1,1,1,0.01,0.00,0.54,-0.06,0.00,0.00,0.15,209,30
2633,0.2,-0.4,0.0,0.015,0.009,-1.016,4.9,-3.9,0.0,0.0193,-0.0146,0.0000,158,231,287,213,0.00,0.01,2.61,0.15,0.0000,1,1,1,0.01,0.00,0.54,-0.06,0.00,0.00,0.15,209,30
2643,0.1,-0.3,0.0,0.017,0.000,-1.010,4.9,-3.9,0.0,0.0194,-0.0147,0.0000,158,231,287,214,0.00,0.01,2.61,0.15,0.0000,1,1,1,0.01,0.00,0.54,-0.06,0.00,0.00,0.15,209,30
2653,0.2,0.0,0.1,0.008,0.004,-1.021,4.9,-3.9,0.0,0.0193,-0.0151,0.0000,158,231,289,215,0.00,0.01,2.61,0.15,0.0000,1,1,1,0.01,0.00,0.54,-0.06,0.00,0.00,0.15,209,30
2663,0.0,-0.1,-0.2,0.011,0.007,-1.020,4.9,-3.9,0.0,0.0195,-0.0149,0.0000,158,232,288,214,0.00,0.01,2.61,0.15,0.0000,1,1,1,0.01,0.00,0.54,-0.06,0.00,0.00,0.15,209,30
2673,0.0,-0.2,0.1,0.017,0.007,-1.018,4.9,-3.9,0.0,0.0193,-0.0147,0.0000,158,231,287,214,0.00,0.01,2.61,0.15,0.0000,1,1,1,0.01,0.00,0.54,-0.06,0.00,0.00,0.15,209,30
2683,0.1,-0.3,0.1,0.013,0.000,-1.014,4.9,-3.9,0.0,0.0194,-0.0147,0.0000,158,232,288,214,0.00,0.01,2.61,0.15,0.0000,1,1,1,0.01,0.00,0.54,-0.06,0.00,0.00,0.15,209,30
2693,0.1,0.0,-0.2,0.016,0.000,-1.012,4.9,-3.9,0.0,0.0193,-0.0151,0.0000,158,231,288,215,0.00,0.01,2.61,0.15,0.0000,1,1,1,0.01,0.00,0.54,-0.06,0.00,0.00,0.15,209,30
2703,0.0,0.0,-0.1,0.008,0.006,-1.025,4.9,-3.9,0.0,0.0194,-0.0151,0.0000,158,231,288,215,0.00,0.01,2.61,0.15,0.0000,1,1,1,0.01,0.00,0.54,-0.06,0.00,0.00,0.15,209,30
2713,-0.1,0.0,0.3,0.016,0.009,-1.020,4.9,-3.9,0.0,0.0196,-0.0151,0.0000,158,232,290,216,0.00,0.01,2.61,0.15,0.0000,1,1,1,0.01,0.00,0.54,-0.06,0.00,0.00,0.15,209,30
2723,-0.1,-0.2,-0.1,0.020,0.004,-1.009,4.9,-3.9,-3.1,0.0197,-0.0149,-0.0002,158,234,290,217,0.00,0.01,2.61,0.15,0.0000,1,1,1,0.01,0.00,0.54,-0.06,0.00,0.00,0.15,209,30
2734,0.2,0.0,0.0,0.011,0.001,-1.012,4.9,-3.9,-3.1,0.0192,-0.0150,-0.0003,158,232,288,216,0.00,0.01,2.61,0.15,0.0000,1,1,1,0.01,0.00,0.54,-0.06,0.00,0.00,0.15,209,30
2744,0.0,0.0,0.1,0.012,0.008,-1.017,4.9,-3.9,-3.1,0.0194,-0.0151,-0.0003,158,233,289,216,0.00,0.01,2.61,0.15,0.0000,1,1,1,0.01,0.00,0.54,-0.06,0.00,0.00,0.15,209,30
2754,-0.3,0.0,0.0,0.019,0.004,-1.020,4.9,-3.9,-3.1,0.0198,-0.0150,-0.0003,158,234,290,216,0.00,0.01,2.61,0.15,0.0000,1,1,1,0.01,0.00,0.54,-0.06,0.00,0.00,0.15,209,30
2764,0.1,-0.1,-0.2,0.016,-0.002,-1.017,4.9,-3.9,-7.5,0.0194,-0.0150,-0.0007,158,235,289,218,0.00,0.01,2.61,0.15,0.0000,1,1,1,0.01,0.00,0.54,-0.06,0.00,0.00,0.15,209,30
2774,0.1,0.1,0.0,0.010,0.002,-1.012,4.9,-3.9,-7.5,0.0193,-0.0152,-0.0007,158,234,289,218,0.00,0.01,2.61,0.15,0.0000,1,1,1,0.01,0.00,0.54,-0.06,0.00,0.00,0.15,209,30
2784,0.0,-0.2,0.3,0.012,0.011,-1.013,4.9,-3.9,-8.1,0.0193,-0.0146,-0.0008,158,234,286,216,0.00,0.01,2.61,0.15,0.0000,1,1,1,0.01,0.00,0.54,-0.06,0.00,0.00,0.15,209,30
2794,0.0,0.0,-0.2,0.013,0.000,-1.018,4.9,-3.9,-8.1,0.0195,-0.0151,-0.0007,158,234,288,218,0.00,0.01,2.61,0.15,0.0000,1,1,1,0.01,0.00,0.54,-0.06,0.00,0.00,0.15,209,30
2804,0.0,0.1,0.0,0.015,0.006,-1.019,4.9,-3.9,-8.1,0.0194,-0.0152,-0.0008,158,235,290,219,0.00,0.01,2.61,0.15,0.0000,1,1,1,0.01,0.00,0.54,-0.06,0.00,0.00,0.15,209,30
2814,0.0,-0.3,0.1,0.019,0.006,-1.015,4.9,-3.9,-8.1,0.0194,-0.0147,-0.0008,158,235,287,217,0.00,0.01,2.61,0.15,0.0000,1,1,1,0.01,0.00,0.54,-0.06,0.00,0.00,0.15,209,30
2824,0.1,-0.2,0.0,0.007,0.006,-1.019,4.9,-3.9,-8.7,0.0194,-0.0147,-0.0008,158,234,286,216,0.00,0.01,2.61,0.15,0.0000,1,1,1,0.01,0.00,0.54,-0.06,0.00,0.00,0.15,209,30
2834,-0.3,0.0,-0.2,0.017,0.008,-1.020,4.9,-3.9,-8.7,0.0199,-0.0150,-0.0008,158,236,290,218,0.00,0.01,2.61,0.15,0.0000,1,1,1,0.01,0.00,0.54,-0.06,0.00,0.00,0.16,209,30
2844,0.0,0.2,0.0,0.015,-0.003,-1.019,4.9,-3.9,-13.7,0.0194,-0.0153,-0.0013,158,237,290,221,0.00,0.01,2.61,0.15,0.0000,1,1,1,0.01,0.00,0.54,-0.06,0.00,0.00,0.16,209,30
2855,-0.2,-0.1,-0.1,0.014,0.009,-1.016,4.9,-3.9,-13.7,0.0196,-0.0149,-0.0013,158,237,289,220,0.00,0.01,2.61,0.15,0.0000,1,1,1,0.01,0.00,0.54,-0.06,0.00,0.00,0.16,209,30
2865,0.0,-0.2,0.0,0.016,0.000,-1.009,4.9,-3.9,-13.7,0.0195,-0.0148,-0.0013,158,236,287,219,0.00,0.01,2.61,0.15,0.0000,1,1,1,0.01,0.00,0.54,-0.06,0.00,0.00,0.16,209,30
2875,-0.1,0.1,0.0,0.016,0.007,-1.011,4.9,-3.9,-13.7,0.0197,-0.0151,-0.0013,158,238,290,221,0.00,0.01,2.61,0.15,0.0000,1,1,1,0.01,0.00,0.54,-0.06,0.00,0.00,0.16,209,30
2885,0.0,0.3,0.1,0.013,0.006,-1.017,4.9,-3.9,-19.6,0.0195,-0.0154,-0.0019,158,239,290,223,0.00,0.01,2.61,0.15,0.0000,1,1,1,0.01,0.00,0.54,-0.06,0.00,0.00,0.16,209,30
2895,0.6,-0.1,-0.2,0.014,0.014,-1.026,4.9,-3.9,-19.6,0.0189,-0.0149,-0.0019,158,237,286,222,0.00,0.01,2.61,0.15,0.0000,1,1,1,0.01,0.00,0.54,-0.06,0.00,0.00,0.16,209,30
2905,0.1,-0.4,0.3,0.013,0.006,-1.011,4.9,-3.9,-19.6,0.0194,-0.0146,-0.0019,158,239,287,221,0.00,0.01,2.61,0.15,0.0000,1,1,1,0.01,0.00,0.54,-0.06,0.00,0.00,0.16,209,30
2915,0.0,-0.3,0.0,0.017,0.003,-1.013,4.9,-3.9,-19.6,0.0195,-0.0147,-0.0019,158,239,288,221,0.00,0.01,2.61,0.15,0.0000,1,1,1,0.01,0.00,0.54,-0.06,0.00,0.00,0.15,209,30
2925,0.0,0.2,-0.1,0.009,0.012,-1.014,4.9,-3.9,-19.9,0.0195,-0.0154,-0.0019,158,239,290,223,0.00,0.01,2.61,0.15,0.0000,1,1,1,0.01,0.00,0.54,-0.06,0.00,0.00,0.15,209,30
2935,0.0,-0.1,0.0,0.017,0.008,-1.015,4.9,-3.9,-19.9,0.0195,-0.0149,-0.0019,158,240,289,222,0.00,0.01,2.61,0.15,0.0000,1,1,1,0.01,0.00,0.54,-0.06,0.00,0.00,0.15,209,30
2945,0.2,-0.4,0.0,0.018,0.002,-1.022,4.9,-4.0,-24.0,0.0193,-0.0147,-0.0023,158,240,287,223,0.00,0.01,2.61,0.15,0.0000,1,1,1,0.01,0.00,0.54,-0.06,0.00,0.00,0.15,209,30
2955,-0.2,-0.2,-0.3,0.012,0.009,-1.016,4.9,-4.0,-24.0,0.0197,-0.0149,-0.0023,158,242,289,223,0.00,0.01,2.61,0.15,0.0000,1,1,1,0.01,0.00,0.54,-0.06,0.00,0.00,0.15,209,30
2965,0.1,0.0,0.0,0.009,0.003,-1.014,4.9,-3.9,-24.0,0.0194,-0.0151,-0.0023,158,240,289,224,0.00,0.01,2.61,0.15,0.0000,1,1,1,0.01,0.00,0.54,-0.06,0.00,0.00,0.15,209,30
2976,-0.1,0.2,0.0,0.014,-0.001,-1.012,4.9,-4.0,-24.0,0.0197,-0.0154,-0.0024,158,241,290,225,0.00,0.01,2.61,0.15,0.0000,1,1,1,0.01,0.00,0.54,-0.06,0.00,0.00,0.16,209,30
2986,0.0,-0.1,0.0,0.020,0.010,-1.012,4.9,-4.0,-24.0,0.0196,-0.0151,-0.0023,158,241,290,224,0.00,0.01,2.61,0.15,0.0000,1,1,1,0.01,0.00,0.54,-0.06,0.00,0.00,0.16,209,30
2996,0.1,-0.2,-0.5,0.018,0.015,-1.019,4.9,-4.0,-24.0,0.0194,-0.0149,-0.0023,158,240,288,224,0.00,0.01,2.61,0.15,0.0000,1,1,1,0.01,0.00,0.54,-0.06,0.00,0.00,0.16,209,30
3006,0.0,-0.1,0.3,0.010,0.008,-1.010,4.9,-4.0,-27.1,0.0195,-0.0149,-0.0027,158,242,288,224,0.00,0.01,2.61,0.15,0.0000,1,1,1,0.01,0.00,0.54,-0.06,0.00,0.00,0.16,209,30
3016,0.1,-0.1,0.0,0.017,0.012,-1.017,4.9,-4.0,-27.1,0.0193,-0.0149,-0.0026,158,241,288,225,0.00,0.01,2.61,0.15,0.0000,1,1,1,0.01,0.00,0.55,-0.06,0.00,0.00,0.16,209,30
3026,-0.2,0.0,0.0,0.018,0.002,-1.009,4.9,-4.0,-27.1,0.0197,-0.0151,-0.0027,158,243,290,226,0.00,0.01,2.61,0.15,0.0000,1,1,1,0.01,0.00,0.55,-0.06,0.00,0.00,0.16,208,30
3036,0.3,-0.4,0.0,0.018,0.007,-1.020,4.9,-4.0,-27.1,0.0192,-0.0146,-0.0026,158,241,287,224,0.00,0.01,2.61,0.15,0.0000,1,1,1,0.01,0.00,0.54,-0.06,0.00,0.00,0.15,208,30
3046,0.0,0.2,0.2,0.015,0.008,-1.008,4.9,-4.0,-27.1,0.0192,-0.0153,-0.0027,158,241,289,226,0.00,0.01,2.61,0.15,0.0000,1,1,1,0.01,0.00,0.54,-0.06,0.00,0.00,0.15,208,30
3056,-0.1,-0.4,-0.1,0.015,0.009,-1.010,4.9,-4.0,-27.1,0.0197,-0.0146,-0.0026,158,243,288,223,0.00,0.01,2.61,0.15,0.0000,1,1,1,0.01,0.00,0.55,-0.06,0.00,0.00,0.15,208,30
3066,0.0,0.0,0.1,0.017,0.007,-1.011,4.9,-4.0,-27.1,0.0195,-0.0152,-0.0027,158,242,289,226,0.00,0.01,2.61,0.15,0.0000,1,1,1,0.01,0.00,0.55,-0.06,0.00,0.00,0.16,208,30
3076,0.0,-0.1,-0.1,0.016,0.009,-1.018,4.9,-4.0,-27.1,0.0195,-0.0149,-0.0026,158,242,289,225,0.00,0.01,2.61,0.15,0.0000,1,1,1,0.01,0.00,0.55,-0.06,0.00,0.00,0.16,208,30
3087,0.3,-0.4,0.0,0.015,0.006,-1.015,4.9,-4.0,-21.5,0.0192,-0.0146,-0.0021,158,239,286,221,0.00,0.01,2.61,0.15,0.0000,1,1,1,0.01,0.00,0.55,-0.06,0.00,0.00,0.16,208,30
3097,0.0,-0.1,0.5,0.013,0.006,-1.016,4.9,-4.0,-21.5,0.0196,-0.0148,-0.0021,158,240,288,222,0.00,0.01,2.61,0.15,0.0000,1,1,1,0.01,0.00,0.55,-0.06,0.00,0.00,0.16,208,30
3107,0.0,0.0,-0.1,0.015,0.008,-1.015,4.9,-4.0,-17.1,0.0195,-0.0150,-0.0016,158,239,289,221,0.00,0.01,2.61,0.15,0.0000,1,1,1,0.01,0.00,0.55,-0.06,0.00,0.00,0.16,208,30
3117,0.0,0.3,-0.2,0.015,0.007,-1.012,4.9,-4.0,-17.1,0.0194,-0.0155,-0.0016,158,238,290,223,0.00,0.01,2.61,0.15,0.0000,1,1,1,0.01,0.00,0.55,-0.06,0.00,0.00,0.16,208,30
3127,0.0,-0.1,0.1,0.007,0.004,-1.018,4.9,-4.0,-12.1,0.0194,-0.0149,-0.0012,158,236,288,219,0.00,0.01,2.61,0.15,0.0000,1,1,1,0.01,0.00,0.55,-0.06,0.00,0.00,0.16,208,30
3137,0.2,-0.4,0.2,0.015,0.014,-1.014,4.9,-4.0,-12.1,0.0192,-0.0146,-0.0012,158,236,286,218,0.00,0.01,2.61,0.15,0.0000,1,1,1,0.01,0.00,0.55,-0.06,0.00,0.00,0.16,208,30
3147,0.0,-0.1,-0.2,0.014,0.006,-1.013,4.9,-4.0,-8.7,0.0194,-0.0150,-0.0008,158,235,288,218,0.00,0.01,2.61,0.15,0.0000,1,1,1,0.01,0.00,0.55,-0.06,0.00,0.00,0.16,208,30
3157,-0.1,0.3,-0.2,0.010,0.009,-1.019,4.9,-4.0,-8.7,0.0196,-0.0154,-0.0008,158,235,290,219,0.00,0.01,2.61,0.15,0.0000,1,1,1,0.01,0.00,0.54,-0.06,0.00,0.00,0.15,208,30
3167,-0.1,-0.1,0.1,0.018,0.003,-1.010,4.9,-4.0,-8.7,0.0196,-0.0150,-0.0008,158,236,289,218,0.00,0.01,2.61,0.15,0.0000,1,1,1,0.01,0.00,0.55,-0.06,0.00,0.00,0.15,208,30
3177,0.0,-0.4,-0.1,0.014,0.009,-1.021,4.9,-4.0,-8.7,0.0195,-0.0146,-0.0008,158,235,287,217,0.00,0.01,2.61,0.15,0.0000,1,1,1,0.01,0.00,0.55,-0.06,0.00,0.00,0.15,208,30
3188,0.0,0.0,0.0,0.016,0.006,-1.007,4.9,-4.0,-8.7,0.0195,-0.0151,-0.0008,158,235,289,218,0.00,0.01,2.61,0.15,0.0000,1,1,1,0.01,0.00,0.55,-0.06,0.00,0.00,0.15,208,30
3198,0.0,0.2,0.2,0.011,0.012,-1.016,4.9,-4.0,-8.7,0.0194,-0.0153,-0.0008,158,235,290,219,0.00,0.01,2.61,0.15,0.0000,1,1,1,0.01,0.00,0.55,-0.06,0.00,0.00,0.15,208,30
3208,0.0,-0.1,-0.3,0.017,0.011,-1.008,4.9,-4.0,0.0,0.0195,-0.0149,0.0000,158,231,288,215,0.00,0.01,2.61,0.15,0.0000,1,1,1,0.01,0.00,0.55,-0.06,0.00,0.00,0.16,208,30
3218,0.1,-0.1,0.0,0.015,0.003,-1.009,4.9,-4.0,0.0,0.0193,-0.0149,0.0000,158,231,288,215,0.00,0.01,2.61,0.15,0.0000,1,1,1,0.01,0.00,0.55,-0.06,0.00,0.00,0.16,208,30
3228,0.1,-0.3,0.3,0.011,0.013,-1.023,4.9,-4.0,0.0,0.0193,-0.0148,0.0000,158,231,288,215,0.00,0.01,2.61,0.15,0.0000,1,1,1,0.01,0.00,0.54,-0.06,0.00,0.00,0.16,208,30
3238,-0.1,0.1,0.1,0.014,0.010,-1.015,4.9,-4.0,0.0,0.0197,-0.0152,0.0000,158,232,289,215,0.00,0.01,2.61,0.15,0.0000,1,1,1,0.01,0.00,0.55,-0.06,0.00,0.00,0.16,208,30
3248,0.0,0.0,-0.4,0.016,0.004,-1.005,4.9,-4.0,0.0,0.0194,-0.0151,0.0000,158,231,289,215,0.00,0.01,2.61,0.15,0.0000,1,1,1,0.01,0.00,0.55,-0.06,0.00,0.00,0.16,208,30
3258,0.3,-0.2,0.2,0.013,0.005,-1.012,4.9,-4.0,0.0,0.0191,-0.0149,0.0000,158,231,287,215,0.00,0.01,2.61,0.15,0.0000,1,1,1,0.01,0.00,0.55,-0.06,0.00,0.00,0.15,208,30
3268,0.0,-0.2,0.0,0.018,0.015,-1.013,4.9,-4.0,0.0,0.0195,-0.0149,0.0000,158,231,287,214,0.00,0.01,2.61,0.15,0.0000,1,1,1,0.01,0.00,0.55,-0.06,0.00,0.00,0.15,208,30
3278,0.1,-0.1,-0.4,0.016,0.012,-1.017,4.9,-4.0,0.0,0.0194,-0.0149,0.0000,158,231,288,214,0.00,0.01,2.61,0.15,0.0000,1,1,1,0.01,0.00,0.55,-0.06,0.00,0.00,0.15,208,30
3288,0.2,-0.1,-0.1,0.015,0.011,-1.013,4.9,-3.9,0.0,0.0194,-0.0149,0.0000,158,231,288,214,0.00,0.01,2.61,0.15,0.0000,1,1,1,0.01,0.00,0.55,-0.06,0.00,0.00,0.15,208,30
3299,0.0,0.1,0.2,0.016,0.003,-1.005,4.9,-3.9,0.0,0.0196,-0.0152,0.0000,158,232,290,216,0.00,0.01,2.61,0.15,0.0000,1,1,1,0.01,0.00,0.55,-0.06,0.00,0.00,0.15,208,30
3309,0.0,0.0,0.0,0.015,0.010,-1.016,4.9,-3.9,0.0,0.0194,-0.0151,0.0000,158,231,289,215,0.00,0.01,2.61,0.15,0.0000,1,1,1,0.01,0.00,0.55,-0.06,0.00,0.00,0.16,208,30
3319,0.1,-0.1,0.0,0.013,0.015,-1.021,4.9,-3.9,0.0,0.0194,-0.0150,0.0000,158,231,288,214,0.00,0.01,2.61,0.16,0.0000,1,1,1,0.01,0.00,0.55,-0.06,0.00,0.00,0.16,208,30
3329,-0.1,0.0,0.4,0.015,0.005,-1.015,4.9,-3.9,0.0,0.0196,-0.0149,0.0000,158,232,289,215,0.00,0.01,2.61,0.16,0.0000,1,1,1,0.01,0.00,0.55,-0.06,0.00,0.00,0.16,208,30
3339,0.1,0.0,0.0,0.015,0.003,-1.009,4.9,-3.9,0.0,0.0194,-0.0151,0.0000,158,231,289,215,0.00,0.01,2.61,0.16,0.0000,1,1,1,0.01,0.00,0.55,-0.06,0.00,0.00,0.16,208,30
3349,0.1,0.0,-0.5,0.011,0.010,-1.017,4.9,-3.9,0.0,0.0194,-0.0150,0.0000,158,231,288,215,0.00,0.01,2.61,0.16,0.0000,1,1,1,0.01,0.00,0.55,-0.06,0.00,0.00,0.16,208,30
3359,0.0,-0.1,0.4,0.012,0.021,-1.013,4.9,-3.9,0.0,0.0195,-0.0149,0.0000,158,232,288,215,0.00,0.01,2.61,0.16,0.0000,1,1,1,0.01,0.00,0.55,-0.06,0.00,0.00,0.16,208,30
3369,-0.1,-0.3,0.1,0.017,0.014,-1.016,4.9,-3.9,0.0,0.0197,-0.0148,0.0000,158,233,288,214,0.00,0.01,2.61,0.16,0.0000,1,1,1,0.01,0.00,0.55,-0.06,0.00,0.00,0.16,208,30
3379,-0.1,0.0,-0.8,0.017,0.000,-1.010,4.9,-3.9,0.0,0.0197,-0.0150,0.0000,158,232,289,214,0.00,0.01,2.61,0.16,0.0000,1,1,1,0.01,0.00,0.55,-0.06,0.00,0.00,0.16,208,30
3389,0.0,0.2,0.2,0.012,0.004,-1.008,4.9,-3.9,0.0,0.0195,-0.0154,0.0000,158,232,290,216,0.00,0.01,2.61,0.16,0.0000,1,1,1,0.01,0.00,0.55,-0.06,0.00,0.00,0.16,208,30
3399,0.1,-0.4,0.2,0.010,0.018,-1.015,4.9,-3.9,0.0,0.0194,-0.0146,0.0000,158,231,287,214,0.00,0.01,2.61,0.16,0.0000,1,1,1,0.01,0.00,0.55,-0.06,0.00,0.00,0.15,208,30
3410,0.1,-0.5,-0.2,0.013,0.013,-1.023,4.9,-3.9,0.0,0.0193,-0.0145,0.0000,158,231,286,213,0.00,0.01,2.61,0.16,0.0000,1,1,1,0.01,0.00,0.55,-0.06,0.00,0.00,0.16,208,30
3420,0.0,0.1,0.0,0.016,0.006,-1.010,4.9,-3.9,0.0,0.0195,-0.0153,0.0000,158,231,289,216,0.00,0.01,2.61,0.16,0.0000,1,1,1,0.01,0.00,0.55,-0.06,0.00,0.00,0.16,208,30
3430,0.2,0.0,0.5,0.010,0.008,-1.015,4.9,-3.9,0.0,0.0192,-0.0150,0.0000,158,232,289,216,0.00,0.01,2.61,0.16,0.0000,1,1,1,0.01,0.00,0.55,-0.06,0.00,0.00,0.16,208,30
3440,0.2,-0.4,-0.2,0.014,0.013,-1.008,4.9,-3.9,0.0,0.0192,-0.0147,0.0000,158,231,286,214,0.00,0.01,2.61,0.16,0.0000,1,1,1,0.01,0.00,0.55,-0.06,0.00,0.00,0.16,208,30
3450,-0.1,-0.2,-0.1,0.011,0.014,-1.011,4.9,-3.9,0.0,0.0196,-0.0149,0.0000,158,233,289,214,0.00,0.01,2.61,0.16,0.0000,1,1,1,0.01,0.00,0.55,-0.06,0.00,0.00,0.16,208,30
3460,0.0,0.0,0.1,0.017,0.011,-1.013,4.9,-3.9,0.0,0.0196,-0.0150,0.0000,158,232,289,215,0.00,0.01,2.61,0.16,0.0000,1,1,1,0.01,0.00,0.55,-0.06,0.00,0.00,0.15,208,30
3470,-0.1,0.1,-0.5,0.015,0.001,-1.011,4.9,-3.9,0.0,0.0195,-0.0151,0.0000,158,231,289,215,0.00,0.01,2.61,0.16,0.0000,1,1,1,0.01,0.00,0.55,-0.06,0.00,0.00,0.16,208,30
3480,0.1,-0.2,-0.2,0.012,0.011,-1.010,4.9,-3.9,0.0,0.0193,-0.0148,0.0000,158,231,288,214,0.00,0.01,2.61,0.16,0.0000,1,1,1,0.01,0.00,0.55,-0.06,0.00,0.00,0.16,208,30
3490,0.0,-0.2,0.3,0.017,0.009,-1.013,4.9,-3.9,0.0,0.0194,-0.0149,0.0000,158,232,288,215,0.00,0.01,2.61,0.16,0.0000,1,1,1,0.01,0.00,0.55,-0.06,0.00,0.00,0.16,208,30
3500,0.0,0.0,0.0,0.015,0.007,-1.017,4.9,-3.9,0.0,0.0195,-0.0151,0.0000,158,232,288,214,0.00,0.01,2.61,0.16,0.0000,1,1,1,0.01,0.00,0.55,-0.06,0.00,0.00,0.16,208,30
3510,0.2,0.1,-0.4,0.016,0.013,-1.011,4.9,-3.9,0.0,0.0192,-0.0152,0.0000,158,231,288,215,0.00,0.01,2.61,0.16,0.0000,1,1,1,0.01,0.00,0.55,-0.06,0.00,0.00,0.16,208,30
3521,0.0,0.0,0.3,0.013,0.009,-1.011,4.9,-3.9,0.0,0.0193,-0.0150,0.0000,158,231,288,215,0.00,0.01,2.61,0.16,0.0000,1,1,1,0.01,0.00,0.55,-0.06,0.00,0.00,0.16,208,30
3531,-0.1,0.0,0.4,0.014,0.008,-1.009,4.9,-3.9,0.0,0.0196,-0.0150,0.0000,158,233,289,215,0.00,0.01,2.61,0.16,0.0000,1,1,1,0.01,0.00,0.55,-0.06,0.00,0.00,0.16,208,30
3541,-0.2,0.0,-0.2,0.015,0.002,-1.017,4.9,-4.0,0.0,0.0198,-0.0151,0.0000,158,233,290,215,0.00,0.01,2.61,0.16,0.0000,1,1,1,0.01,0.00,0.55,-0.06,0.00,0.00,0.16,208,30
3551,0.0,-0.2,0.0,0.014,0.005,-1.019,4.9,-3.9,0.0,0.0196,-0.0148,0.0000,158,232,288,214,0.00,0.01,2.61,0.16,0.0000,1,1,1,0.01,0.00,0.55,-0.06,0.00,0.00,0.16,208,30
3561,0.0,0.0,0.2,0.012,0.005,-1.014,4.9,-3.9,0.0,0.0195,-0.0151,0.0000,158,231,288,215,0.00,0.01,2.61,0.16,0.0000,1,1,1,0.01,0.00,0.55,-0.06,0.00,0.00,0.16,208,30
3571,0.2,0.0,-0.5,0.013,0.014,-1.009,4.9,-4.0,0.0,0.0194,-0.0153,0.0000,158,231,289,216,0.00,0.01,2.61,0.16,0.0000,1,1,1,0.01,0.00,0.55,-0.06,0.00,0.00,0.16,208,30
3581,0.0,-0.3,0.0,0.012,0.013,-1.014,4.9,-4.0,0.0,0.0195,-0.0147,0.0000,158,231,288,214,0.00,0.01,2.61,0.16,0.0000,1,1,1,0.01,0.00,0.55,-0.06,0.00,0.00,0.16,208,30
3591,0.0,0.0,0.4,0.010,0.008,-1.011,4.9,-3.9,0.0,0.0194,-0.0151,0.0000,158,231,288,215,0.00,0.01,2.61,0.16,0.0000,1,1,1,0.01,0.00,0.55,-0.06,0.00,0.00,0.15,208,30
3601,0.0,-0.2,-0.2,0.012,0.004,-1.015,4.9,-3.9,0.0,0.0195,-0.0148,0.0000,158,232,288,214,0.00,0.01,2.61,0.16,0.0000,1,1,1,0.01,0.00,0.55,-0.06,0.00,0.00,0.16,208,30
3611,-0.1,-0.1,-0.2,0.014,0.010,-1.013,4.9,-4.0,0.0,0.0196,-0.0150,0.0000,158,232,289,215,0.00,0.01,2.61,0.16,0.0000,1,1,1,0.01,0.00,0.55,-0.06,0.00,0.00,0.16,208,30
3621,0.0,0.0,0.3,0.013,0.012,-1.006,4.9,-4.0,0.0,0.0196,-0.0151,0.0000,158,232,289,215,0.00,0.01,2.61,0.16,0.0000,1,1,1,0.01,0.00,0.55,-0.06,0.00,0.00,0.16,208,30
3631,0.0,-0.3,0.2,0.015,0.011,-1.013,4.9,-3.9,0.0,0.0195,-0.0148,0.0000,158,232,288,214,0.00,0.01,2.61,0.16,0.0000,1,1,1,0.01,0.00,0.55,-0.06,0.00,0.00,0.16,208,30
3642,0.0,0.0,-0.2,0.015,0.005,-1.011,4.9,-3.9,0.0,0.0195,-0.0150,0.0000,158,231,288,215,0.00,0.01,2.61,0.16,0.0000,1,1,1,0.01,0.00,0.55,-0.06,0.00,0.00,0.16,208,30
3652,0.1,0.1,0.1,0.010,0.008,-1.012,4.9,-3.9,0.0,0.0193,-0.0152,0.0000,158,231,289,216,0.00,0.01,2.61,0.16,0.0000,1,1,1,0.01,0.00,0.55,-0.06,0.00,0.00,0.16,208,30
3662,0.2,0.0,-0.1,0.008,0.005,-1.010,4.9,-3.9,0.0,0.0192,-0.0151,0.0000,158,231,288,215,0.00,0.01,2.61,0.16,0.0000,1,1,1,0.01,0.00,0.55,-0.06,0.00,0.00,0.16,208,30
3672,0.3,-0.1,-0.1,0.016,0.011,-1.012,4.9,-3.9,0.0,0.0192,-0.0149,0.0000,158,231,287,214,0.00,0.01,2.61,0.16,0.0000,1,1,1,0.01,0.00,0.55,-0.06,0.00,0.00,0.16,208,30
3682,0.1,0.0,0.1,0.018,0.013,-1.007,4.9,-3.9,0.0,0.0194,-0.0148,0.0000,158,232,288,214,0.00,0.01,2.61,0.16,0.0000,1,1,1,0.01,0.00,0.55,-0.06,0.00,0.00,0.16,208,30
3692,0.0,0.2,0.0,0.013,0.008,-1.019,4.9,-4.0,0.0,0.0194,-0.0154,0.0000,158,231,289,216,0.00,0.01,2.61,0.16,0.0000,1,1,1,0.01,0.00,0.55,-0.06,0.00,0.00,0.16,208,30
3702,0.0,0.0,-0.3,0.010,0.005,-1.009,4.9,-4.0,0.0,0.0196,-0.0150,0.0000,158,231,288,214,0.00,0.01,2.61,0.16,0.0000,1,1,1,0.01,0.00,0.55,-0.06,0.00,0.00,0.16,208,30
3712,0.0,-0.3,0.3,0.016,0.008,-1.015,4.9,-4.0,0.0,0.0197,-0.0149,0.0000,158,233,289,215,0.00,0.01,2.61,0.16,0.0000,1,1,1,0.01,0.00,0.55,-0.06,0.00,0.00,0.16,208,30
3722,-0.1,-0.2,0.0,0.015,0.008,-1.007,4.9,-4.0,0.0,0.0197,-0.0149,0.0000,158,233,289,214,0.00,0.01,2.61,0.16,0.0000,1,1,1,0.01,0.00,0.55,-0.06,0.00,0.00,0.16,208,30
3732,-0.1,0.0,-0.3,0.013,0.006,-1.015,4.9,-4.0,0.0,0.0196,-0.0151,0.0000,158,232,290,215,0.00,0.01,2.61,0.16,0.0000,1,1,1,0.01,0.00,0.55,-0.06,0.00,0.00,0.16,208,30
3742,0.2,0.0,0.2,0.012,0.011,-1.017,4.9,-4.0,0.0,0.0193,-0.0151,0.0000,158,231,288,215,0.00,0.01,2.61,0.16,0.0000,1,1,1,0.01,0.00,0.55,-0.06,0.00,0.00,0.16,208,30
3752,0.3,-0.5,0.1,0.013,0.009,-1.019,4.9,-4.0,0.0,0.0192,-0.0146,0.0000,158,231,287,214,0.00,0.01,2.61,0.16,0.0000,1,1,1,0.01,0.00,0.55,-0.06,0.00,0.00,0.16,208,30
3763,0.0,-0.2,-0.6,0.016,0.011,-1.010,4.9,-4.0,0.0,0.0194,-0.0148,0.0000,158,231,288,214,0.00,0.01,2.61,0.16,0.0000,1,1,1,0.01,0.00,0.55,-0.06,0.00,0.00,0.16,208,30
3773,0.0,0.2,0.0,0.009,0.001,-1.015,4.9,-3.9,0.0,0.0195,-0.0152,0.0000,158,232,290,216,0.00,0.01,2.61,0.16,0.0000,1,1,1,0.01,0.00,0.55,-0.06,0.00,0.00,0.16,208,30
3783,0.0,0.0,0.4,0.009,0.014,-1.020,4.9,-3.9,0.0,0.0195,-0.0151,0.0000,158,232,289,216,0.00,0.01,2.61,0.16,0.0000,1,1,1,0.01,0.00,0.55,-0.06,0.00,0.00,0.16,208,30
3793,0.0,-0.3,-0.4,0.017,0.010,-1.011,4.9,-3.9,0.0,0.0195,-0.0147,0.0000,158,231,287,213,0.00,0.01,2.61,0.16,0.0000,1,1,1,0.01,0.00,0.55,-0.06,0.00,0.00,0.16,208,30
3803,-0.1,-0.3,-0.1,0.012,0.005,-1.013,4.9,-3.9,0.0,0.0197,-0.0147,0.0000,158,233,289,214,0.00,0.01,2.61,0.16,0.0000,1,1,1,0.01,0.00,0.55,-0.06,0.00,0.00,0.16,208,30
3813,0.1,0.0,0.4,0.010,0.001,-1.010,4.9,-3.9,0.0,0.0193,-0.0151,0.0000,158,231,288,215,0.00,0.01,2.61,0.16,0.0000,1,1,1,0.01,0.00,0.55,-0.06,0.00,0.00,0.16,208,30
3823,0.0,0.0,0.2,0.014,0.009,-1.011,4.9,-3.9,0.0,0.0193,-0.0149,0.0000,158,231,287,214,0.00,0.01,2.61,0.16,0.0000,1,1,1,0.01,0.00,0.55,-0.06,0.00,0.00,0.16,208,30
3833,0.0,-0.1,-0.4,0.016,0.007,-1.017,4.9,-3.9,0.0,0.0196,-0.0150,0.0000,158,232,289,215,0.00,0.01,2.61,0.16,0.0000,1,1,1,0.01,0.00,0.55,-0.06,0.00,0.00,0.16,209,30
3843,0.1,0.0,0.2,0.010,0.010,-1.019,4.9,-3.9,0.0,0.0194,-0.0150,0.0000,158,231,288,215,0.00,0.01,2.61,0.16,0.0000,1,1,1,0.01,0.00,0.55,-0.06,0.00,0.00,0.16,209,30
3853,0.0,0.0,0.1,0.012,0.007,-1.007,4.9,-3.9,0.0,0.0194,-0.0149,0.0000,158,232,287,214,0.00,0.01,2.61,0.16,0.0000,1,1,1,0.01,0.00,0.55,-0.06,0.00,0.00,0.16,209,30
3864,0.0,0.0,-0.2,0.011,0.005,-1.017,4.9,-3.9,0.0,0.0195,-0.0151,0.0000,158,231,289,215,0.00,0.01,2.61,0.16,0.0000,1,1,1,0.01,0.00,0.55,-0.06,0.00,0.00,0.16,209,30
3874,0.0,0.0,0.0,0.014,0.003,-1.014,4.9,-4.0,0.0,0.0195,-0.0151,0.0000,158,232,289,215,0.00,0.01,2.61,0.16,0.0000,1,1,1,0.01,0.00,0.55,-0.06,0.00,0.00,0.16,209,30
3884,-0.1,-0.1,0.0,0.017,0.009,-1.011,4.9,-4.0,0.0,0.0197,-0.0150,0.0000,158,232,290,216,0.00,0.01,2.61,0.16,0.0000,1,1,1,0.01,0.00,0.55,-0.06,0.00,0.00,0.16,209,30
3894,-0.1,0.1,-0.3,0.013,0.010,-1.012,4.9,-3.9,0.0,0.0196,-0.0152,0.0000,158,232,290,215,0.00,0.01,2.61,0.16,0.0000,1,1,1,0.01,0.00,0.55,-0.06,0.00,0.00,0.16,209,30
3904,0.1,0.0,0.6,0.013,0.001,-1.013,4.9,-4.0,0.0,0.0193,-0.0151,0.0000,158,231,288,215,0.00,0.01,2.61,0.16,0.0000,1,1,1,0.01,0.00,0.55,-0.06,0.00,0.00,0.16,209,30
3914,0.0,0.1,0.2,0.012,0.005,-1.009,4.9,-4.0,0.0,0.0195,-0.0153,0.0000,158,232,290,216,0.00,0.01,2.61,0.16,0.0000,1,1,1,0.01,0.00,0.55,-0.06,0.00,0.00,0.16,209,30
3924,0.1,0.0,-0.5,0.014,0.010,-1.019,4.9,-4.0,0.0,0.0193,-0.0150,0.0000,158,231,289,215,0.00,0.01,2.61,0.16,0.0000,1,1,1,0.01,0.00,0.55,-0.06,0.00,0.00,0.16,209,30
3934,0.2,-0.1,0.2,0.014,0.012,-1.013,4.9,-4.0,0.0,0.0193,-0.0150,0.0000,158,231,288,215,0.00,0.01,2.61,0.16,0.0000,1,1,1,0.01,0.00,0.55,-0.06,0.00,0.00,0.16,209,30
3944,0.0,-0.2,0.6,0.014,0.006,-1.009,4.9,-4.0,0.0,0.0195,-0.0148,0.0000,158,232,288,214,0.00,0.01,2.61,0.16,0.0000,1,1,1,0.01,0.00,0.55,-0.06,0.00,0.00,0.16,208,30
3954,0.0,-0.3,-0.2,0.017,0.010,-1.015,4.9,-4.0,0.0,0.0196,-0.0147,0.0000,158,232,288,214,0.00,0.01,2.61,0.16,0.0000,1,1,1,0.01,0.00,0.55,-0.06,0.00,0.00,0.16,208,30
3964,-0.1,0.2,-0.3,0.012,0.007,-1.012,4.9,-4.0,0.0,0.0197,-0.0154,0.0000,158,232,291,216,0.00,0.01,2.61,0.16,0.0000,1,1,1,0.01,0.00,0.55,-0.06,0.00,0.00,0.16,208,30
3974,0.1,-0.3,0.3,0.014,0.005,-1.018,4.9,-4.0,0.0,0.0194,-0.0147,0.0000,158,232,288,214,0.00,0.01,2.61,0.16,0.0000,1,1,1,0.01,0.00,0.55,-0.06,0.00,0.00,0.16,208,30
3984,0.2,-0.4,-0.1,0.014,0.000,-1.020,4.9,-4.0,0.0,0.0192,-0.0146,0.0000,158,231,286,213,0.00,0.01,2.61,0.16,0.0000,1,1,1,0.01,0.00,0.55,-0.06,0.00,0.00,0.16,208,30
3995,0.0,0.0,-0.1,0.010,0.010,-1.009,4.9,-4.0,0.0,0.0196,-0.0151,0.0000,158,232,289,215,0.00,0.01,2.61,0.16,0.0000,1,1,1,0.01,0.00,0.55,-0.06,0.00,0.00,0.16,208,30
4005,0.0,0.1,0.0,0.012,0.005,-1.018,4.9,-4.0,0.0,0.0195,-0.0153,0.0000,158,231,289,216,0.00,0.01,2.61,0.16,0.0000,1,1,1,0.01,0.00,0.55,-0.06,0.00,0.00,0.15,208,30
4015,0.2,-0.1,0.0,0.010,0.007,-1.022,4.9,-4.0,0.0,0.0193,-0.0150,0.0000,158,231,288,215,0.00,0.01,2.61,0.16,0.0000,1,1,1,0.01,0.00,0.55,-0.06,0.00,0.00,0.16,208,30
4025,0.0,-0.5,0.0,0.019,0.013,-1.012,4.9,-4.0,0.0,0.0194,-0.0145,0.0000,158,232,287,213,0.00,0.01,2.61,0.16,0.0000,1,1,1,0.01,0.00,0.55,-0.06,0.00,0.00,0.16,208,30
4035,-0.1,0.0,0.0,0.014,0.005,-1.013,4.9,-4.0,0.0,0.0195,-0.0150,0.0000,158,232,289,215,0.00,0.01,2.61,0.16,0.0000,1,1,1,0.01,0.00,0.55,-0.06,0.00,0.00,0.16,208,30
4045,0.0,0.1,0.0,0.009,0.004,-1.013,4.9,-4.0,0.0,0.0196,-0.0151,0.0000,158,232,289,215,0.00,0.01,2.61,0.16,0.0036,1,1,1,0.01,0.00,0.55,-0.06,0.00,0.00,0.16,208,30
4055,-0.1,-0.1,-0.1,0.014,0.000,-1.012,4.9,-4.0,0.0,0.0197,-0.0149,0.0000,158,232,289,214,0.00,0.01,2.61,0.16,0.0036,1,1,1,0.01,0.00,0.55,-0.06,0.00,0.00,0.16,208,30
4065,0.0,-0.2,-0.1,0.016,0.004,-1.020,4.9,-4.0,0.0,0.0193,-0.0150,0.0000,158,231,288,215,0.00,0.01,2.61,0.16,0.0036,1,1,1,0.01,0.00,0.55,-0.06,0.00,0.00,0.15,208,30
4075,0.1,0.0,0.1,0.011,0.006,-1.013,4.9,-4.0,0.0,0.0194,-0.0150,0.0000,158,231,288,215,0.00,0.01,2.61,0.16,0.0036,1,1,1,0.01,0.00,0.55,-0.06,0.00,0.00,0.16,208,30
4085,0.0,0.3,0.1,0.011,0.002,-1.006,4.9,-4.0,0.0,0.0195,-0.0154,0.0000,158,232,290,216,0.00,0.01,2.61,0.16,0.0115,1,1,1,0.01,0.00,0.55,-0.06,0.00,0.00,0.16,208,30
4096,0.1,0.0,-0.1,0.018,0.008,-1.016,4.9,-4.0,0.0,0.0194,-0.0151,0.0000,158,232,289,215,0.00,0.01,2.61,0.16,0.0115,1,1,1,0.01,0.00,0.55,-0.06,0.00,0.00,0.16,208,30
4106,0.1,0.1,-0.3,0.012,0.006,-1.025,4.9,-4.0,0.0,0.0195,-0.0154,0.0000,158,232,290,216,0.00,0.01,2.61,0.16,0.0128,1,1,1,0.01,0.00,0.55,-0.06,0.00,0.00,0.16,208,30
4116,0.1,-0.2,0.0,0.016,0.000,-1.009,4.9,-4.0,0.0,0.0193,-0.0148,0.0000,158,231,288,214,0.00,0.01,2.61,0.16,0.0128,1,1,1,0.01,0.00,0.55,-0.06,0.00,0.00,0.16,208,30
4126,-0.1,-0.2,0.1,0.010,0.004,-1.016,4.9,-4.0,0.0,0.0196,-0.0149,0.0000,158,232,288,214,0.00,0.01,2.61,0.16,0.0231,1,1,1,0.01,0.00,0.55,-0.06,0.00,0.00,0.16,208,30
4136,-0.1,0.1,0.2,0.012,0.004,-1.012,4.9,-4.0,0.0,0.0196,-0.0153,0.0000,158,232,290,216,0.00,0.01,2.61,0.16,0.0231,1,1,1,0.01,0.00,0.55,-0.06,0.00,0.00,0.16,208,30
4146,0.1,0.0,0.0,0.017,0.006,-1.016,4.9,-4.0,0.0,0.0193,-0.0151,0.0000,158,231,289,215,0.00,0.01,2.61,0.16,0.0231,1,1,1,0.01,0.00,0.55,-0.06,0.00,0.00,0.16,208,30
4156,0.5,-0.4,0.0,0.012,0.005,-1.013,4.9,-4.0,0.0,0.0189,-0.0149,0.0000,158,230,287,215,0.00,0.01,2.61,0.16,0.0231,1,1,1,0.01,0.00,0.55,-0.06,0.00,0.00,0.16,208,30
4166,0.0,0.0,0.0,0.011,0.006,-1.012,4.9,-4.0,0.0,0.0195,-0.0150,0.0000,158,231,288,214,0.00,0.01,2.61,0.16,0.0244,1,1,1,0.01,0.00,0.55,-0.06,0.00,0.00,0.16,208,30
4176,0.0,-0.2,-0.1,0.013,0.005,-1.010,4.9,-4.0,0.0,0.0194,-0.0149,0.0000,158,231,287,213,0.00,0.01,2.61,0.16,0.0244,1,1,1,0.01,0.00,0.55,-0.06,0.00,0.00,0.16,208,30
4186,0.2,0.0,0.0,0.007,0.004,-1.020,4.9,-4.0,0.0,0.0193,-0.0151,0.0000,160,234,292,218,0.00,0.01,2.61,0.16,0.0359,1,1,0,0.01,0.00,0.55,-0.06,0.00,0.00,0.16,208,30
4196,0.1,-0.2,-0.3,0.015,0.004,-1.014,4.9,-4.0,0.0,0.0194,-0.0148,0.0000,161,234,291,217,0.00,0.01,2.61,0.16,0.0359,1,1,0,0.01,0.00,0.55,-0.06,0.00,0.00,0.16,208,30
4206,0.1,-0.5,-0.1,0.012,0.011,-1.013,4.9,-4.0,0.0,0.0193,-0.0145,0.0000,185,258,313,240,0.00,0.01,2.61,0.16,0.0482,1,1,0,0.01,0.00,0.55,-0.06,0.00,0.00,0.16,208,30
4217,0.0,-0.2,0.2,0.014,0.007,-1.012,4.9,-4.0,0.0,0.0195,-0.0148,0.0000,184,258,314,240,0.00,0.01,2.61,0.16,0.0482,1,1,0,0.01,0.00,0.55,-0.06,0.00,0.00,0.16,208,30
4227,-0.2,0.0,0.1,0.024,0.007,-1.002,4.9,-4.0,0.0,0.0198,-0.0151,0.0000,201,276,334,259,0.00,0.01,2.61,0.16,0.0579,1,1,0,0.01,0.00,0.55,-0.06,0.00,0.00,0.16,208,30
4237,-0.2,-0.3,0.0,0.014,-0.004,-1.018,4.9,-4.0,0.0,0.0197,-0.0148,0.0000,202,276,333,258,0.00,0.01,2.61,0.16,0.0579,1,1,0,0.01,0.00,0.55,-0.06,0.00,0.00,0.16,208,30
4247,0.3,0.3,0.0,0.010,0.006,-1.020,4.9,-4.0,0.0,0.0192,-0.0155,0.0000,202,275,333,260,0.00,0.01,2.61,0.16,0.0579,1,1,0,0.01,0.00,0.55,-0.06,0.00,0.00,0.16,208,30
4257,0.5,-0.2,0.1,0.015,0.011,-1.006,4.9,-4.0,0.0,0.0189,-0.0148,0.0000,203,275,332,259,0.00,0.01,2.61,0.16,0.0579,1,1,0,0.01,0.00,0.55,-0.06,0.00,0.00,0.16,208,30
4267,0.2,0.0,-0.1,0.015,-0.004,-1.015,4.9,-4.0,0.0,0.0192,-0.0151,0.0000,202,275,332,260,0.00,0.01,2.61,0.16,0.0579,1,1,0,0.01,0.00,0.55,-0.06,0.00,0.00,0.16,208,30
4277,-0.1,0.1,0.0,0.013,0.019,-1.011,4.9,-4.0,0.0,0.0198,-0.0153,0.0000,201,276,334,259,0.00,0.01,2.61,0.16,0.0579,1,1,0,0.01,0.00,0.55,-0.06,0.00,0.00,0.15,208,30
4287,0.0,-0.3,-0.2,0.010,0.002,-1.026,4.9,-4.0,0.0,0.0195,-0.0147,0.0000,203,276,332,259,0.00,0.01,2.61,0.16,0.0579,1,1,0,0.01,0.00,0.55,-0.06,0.00,0.00,0.16,208,30
4297,-0.1,0.0,-0.2,0.018,0.011,-1.010,4.9,-4.0,0.0,0.0197,-0.0152,0.0000,201,276,334,259,0.00,0.01,2.61,0.16,0.0579,1,1,0,0.01,0.00,0.55,-0.06,0.00,0.00,0.16,208,30
4307,-0.3,-0.2,0.2,0.015,0.003,-1.018,4.9,-4.0,0.0,0.0199,-0.0149,0.0000,203,279,335,259,0.00,0.01,2.61,0.16,0.0585,1,1,0,0.01,0.00,0.55,-0.06,0.00,0.00,0.16,208,30
4317,-0.1,-0.1,-0.1,0.013,0.007,-1.013,4.9,-4.0,0.0,0.0197,-0.0148,0.0000,204,278,334,259,0.00,0.01,2.61,0.16,0.0585,1,1,0,0.01,0.00,0.55,-0.06,0.00,0.00,0.16,208,30
4327,0.3,-0.2,0.0,0.017,0.005,-1.017,4.9,-4.0,0.0,0.0192,-0.0148,0.0000,222,294,350,278,0.00,0.01,2.61,0.16,0.0677,1,1,0,0.01,0.00,0.55,-0.06,0.00,0.00,0.16,208,30
4338,0.0,0.1,0.3,0.009,0.009,-1.006,4.9,-4.0,0.0,0.0196,-0.0153,0.0000,220,295,352,277,0.00,0.01,2.61,0.16,0.0677,1,1,0,0.01,0.00,0.55,-0.06,0.00,0.00,0.16,208,30
4348,0.0,0.0,0.2,0.010,0.013,-1.012,4.9,-4.0,0.0,0.0196,-0.0150,0.0000,221,295,351,277,0.00,0.01,2.61,0.16,0.0677,1,1,0,0.01,0.00,0.55,-0.06,0.00,0.00,0.16,208,30
4358,0.4,-0.2,-0.1,0.012,0.007,-1.020,4.9,-4.0,0.0,0.0192,-0.0150,0.0000,221,294,351,278,0.00,0.01,2.61,0.16,0.0677,1,1,0,0.01,0.00,0.55,-0.06,0.00,0.00,0.16,208,30
4368,-0.2,-0.2,-0.5,0.012,0.006,-1.015,4.9,-4.0,0.0,0.0198,-0.0150,0.0000,221,295,351,276,0.00,0.01,2.61,0.16,0.0677,1,1,0,0.01,0.00,0.55,-0.06,0.00,0.00,0.16,208,30
4378,-0.3,0.1,0.0,0.010,0.002,-1.015,4.9,-4.0,0.0,0.0198,-0.0152,0.0000,220,295,352,277,0.00,0.01,2.61,0.16,0.0677,1,1,0,0.01,0.00,0.55,-0.06,0.00,0.00,0.16,208,30
4388,0.1,-0.6,0.1,0.020,0.010,-1.024,4.9,-4.0,0.0,0.0194,-0.0146,0.0000,221,295,351,277,0.00,0.01,2.61,0.16,0.0677,1,1,0,0.01,0.00,0.55,-0.06,0.00,0.00,0.16,208,30
4398,0.1,0.0,-0.7,0.020,0.007,-1.009,4.9,-4.0,0.0,0.0194,-0.0152,0.0000,220,294,352,278,0.00,0.01,2.61,0.16,0.0677,1,1,0,0.01,0.00,0.55,-0.06,0.00,0.00,0.16,208,30
4408,-0.1,0.4,0.0,0.016,0.004,-1.012,4.9,-4.0,0.0,0.0196,-0.0156,0.0000,219,293,353,278,0.00,0.01,2.61,0.16,0.0677,1,1,0,0.01,0.00,0.55,-0.06,0.00,0.00,0.16,208,30
4418,0.0,-0.3,0.6,0.010,0.014,-1.012,4.9,-4.0,0.0,0.0195,-0.0149,0.0000,220,295,351,277,0.00,0.01,2.61,0.16,0.0677,1,1,0,0.01,0.00,0.55,-0.06,0.00,0.00,0.16,208,30
4428,0.1,-0.4,-0.2,0.013,0.000,-1.009,4.9,-4.0,0.0,0.0195,-0.0148,0.0000,221,295,351,277,0.00,0.01,2.61,0.16,0.0677,1,1,0,0.01,0.00,0.55,-0.06,0.00,0.00,0.16,208,30
4438,0.2,-0.1,0.0,0.012,0.007,-1.017,4.9,-4.0,0.0,0.0194,-0.0151,0.0000,220,294,351,278,0.00,0.01,2.61,0.16,0.0677,1,1,0,0.01,0.00,0.55,-0.06,0.00,0.00,0.16,208,30
4449,-0.1,0.1,0.4,0.000,0.009,-1.017,4.9,-4.0,0.0,0.0198,-0.0153,0.0000,219,295,352,277,0.00,0.01,2.61,0.16,0.0677,1,1,0,0.01,0.00,0.55,-0.06,0.00,0.00,0.16,208,30
4459,0.2,0.0,0.0,0.010,0.004,-1.019,4.9,-4.0,0.0,0.0193,-0.0151,0.0000,221,294,351,278,0.00,0.01,2.61,0.16,0.0677,1,1,0,0.01,0.00,0.55,-0.06,0.00,0.00,0.16,208,30
4469,0.6,-0.2,-0.1,0.007,0.010,-1.023,4.9,-4.0,0.0,0.0190,-0.0149,0.0000,221,294,350,278,0.00,0.01,2.61,0.16,0.0677,1,1,0,0.01,0.00,0.55,-0.06,0.00,0.00,0.16,208,30
4479,0.0,0.0,0.1,0.011,0.004,-1.008,4.9,-4.0,0.0,0.0197,-0.0153,0.0000,220,295,352,277,0.00,0.01,2.61,0.16,0.0677,1,1,0,0.01,0.00,0.55,-0.06,0.00,0.00,0.16,209,30
4489,0.1,0.0,0.0,0.010,0.010,-1.026,4.9,-4.0,0.0,0.0196,-0.0151,0.0000,220,294,352,277,0.00,0.01,2.61,0.16,0.0677,1,1,0,0.01,0.00,0.55,-0.06,0.00,0.00,0.16,209,30
4499,0.2,-0.6,-0.2,0.015,0.007,-1.015,4.9,-4.0,0.0,0.0194,-0.0146,0.0000,221,295,350,277,0.00,0.01,2.61,0.16,0.0677,1,1,0,0.01,0.00,0.55,-0.06,0.00,0.00,0.16,209,30
4509,0.0,0.2,0.1,0.017,0.002,-1.008,4.9,-4.0,0.0,0.0196,-0.0155,0.0000,220,294,352,278,0.00,0.01,2.61,0.16,0.0677,1,1,0,0.01,0.00,0.55,-0.06,0.00,0.00,0.16,209,30
4519,0.1,0.0,0.1,0.020,0.013,-1.012,4.9,-4.0,0.0,0.0194,-0.0152,0.0000,220,293,351,278,0.00,0.01,2.61,0.16,0.0677,1,1,0,0.01,0.00,0.55,-0.06,0.00,0.00,0.16,209,30
4529,0.3,0.2,0.0,0.013,0.002,-1.008,4.9,-4.0,0.0,0.0193,-0.0155,0.0000,220,294,352,278,0.00,0.01,2.61,0.16,0.0677,1,1,0,0.01,0.00,0.55,-0.06,0.00,0.00,0.16,209,30
4539,-0.1,-0.1,-0.1,0.018,0.014,-1.009,4.9,-4.0,0.0,0.0198,-0.0150,0.0000,220,295,352,277,0.00,0.01,2.61,0.16,0.0677,1,1,0,0.01,0.00,0.55,-0.05,0.00,0.00,0.16,209,30
4549,0.2,-0.1,0.3,0.010,0.004,-1.012,4.9,-4.0,0.0,0.0194,-0.0151,0.0000,221,294,351,278,0.00,0.01,2.61,0.16,0.0677,1,1,0,0.01,0.00,0.55,-0.05,0.00,0.00,0.16,209,30
4559,0.4,-0.1,-0.1,0.015,0.006,-1.010,4.9,-4.0,0.0,0.0192,-0.0152,0.0000,221,294,351,278,0.00,0.01,2.61,0.16,0.0677,1,1,0,0.01,0.00,0.55,-0.06,0.00,0.00,0.16,209,30
4570,0.0,0.0,0.2,0.010,0.012,-1.010,4.9,-4.0,0.0,0.0197,-0.0151,0.0000,220,295,352,277,0.00,0.01,2.61,0.16,0.0677,1,1,0,0.01,0.00,0.55,-0.06,0.00,0.00,0.16,209,30
4580,0.2,-0.4,-0.4,0.011,0.007,-1.019,4.9,-4.0,0.0,0.0194,-0.0148,0.0000,221,294,351,277,0.00,0.01,2.61,0.16,0.0677,1,1,0,0.01,0.00,0.55,-0.05,0.00,0.00,0.16,209,30
4590,-0.2,0.0,0.3,0.014,0.005,-1.020,4.9,-4.0,0.0,0.0199,-0.0153,0.0000,219,295,352,277,0.00,0.01,2.61,0.16,0.0677,1,1,0,0.01,0.00,0.55,-0.06,0.00,0.00,0.16,209,30
4600,0.0,-0.2,0.0,0.017,0.006,-1.009,4.9,-4.0,0.0,0.0197,-0.0150,0.0000,220,295,352,277,0.00,0.01,2.61,0.16,0.0677,1,1,0,0.01,0.00,0.55,-0.06,0.00,0.00,0.16,209,30
4610,0.2,0.2,-0.4,0.016,0.000,-1.018,4.9,-4.0,0.0,0.0194,-0.0155,0.0000,220,293,352,279,0.00,0.01,2.61,0.16,0.0677,1,1,0,0.01,0.00,0.55,-0.06,0.00,0.00,0.16,209,30
4620,-0.1,-0.3,-0.1,0.018,0.009,-1.011,4.9,-4.0,0.0,0.0199,-0.0150,0.0000,219,295,352,276,0.00,0.01,2.61,0.16,0.0677,1,1,0,0.01,0.00,0.55,-0.06,0.00,0.00,0.16,209,30
4630,0.0,0.0,1.0,0.014,0.001,-1.014,4.9,-4.0,0.0,0.0197,-0.0152,0.0000,220,295,352,278,0.00,0.01,2.61,0.16,0.0677,1,1,0,0.01,0.00,0.55,-0.05,0.00,0.00,0.16,209,30
4640,0.0,0.0,-0.4,0.015,0.008,-1.017,4.9,-4.0,0.0,0.0196,-0.0154,0.0000,220,294,352,278,0.00,0.01,2.61,0.16,0.0677,1,1,0,0.01,0.00,0.55,-0.05,0.00,0.00,0.16,209,30
4650,0.1,0.2,-0.5,0.013,0.004,-1.011,4.9,-4.0,0.0,0.0196,-0.0155,0.0000,219,294,352,278,0.00,0.01,2.61,0.16,0.0677,1,1,0,0.01,0.00,0.55,-0.05,0.00,0.00,0.16,209,30
4660,-0.2,-0.1,0.2,0.010,0.001,-1.021,4.9,-4.0,0.0,0.0200,-0.0151,0.0000,219,295,352,277,0.00,0.01,2.61,0.16,0.0677,1,1,0,0.01,0.00,0.55,-0.05,0.00,0.00,0.16,209,30
4670,0.0,-0.1,0.3,0.015,0.006,-1.022,4.9,-4.0,0.0,0.0197,-0.0152,0.0000,221,295,353,279,0.00,0.01,2.61,0.16,0.0683,1,1,0,0.01,0.00,0.55,-0.06,0.00,0.00,0.16,209,30
4681,0.0,-0.1,-0.8,0.020,0.006,-1.015,4.9,-4.0,0.0,0.0197,-0.0152,0.0000,221,295,353,278,0.00,0.01,2.61,0.16,0.0683,1,1,0,0.01,0.00,0.55,-0.05,0.00,0.00,0.16,209,30
4691,0.1,0.1,-0.1,0.013,0.005,-1.019,4.9,-4.0,0.0,0.0196,-0.0156,0.0000,220,295,354,279,0.00,0.01,2.61,0.16,0.0683,1,1,0,0.01,0.00,0.55,-0.05,0.00,0.00,0.16,209,30
4701,0.0,-0.4,0.4,0.017,0.007,-1.013,4.9,-4.0,0.0,0.0197,-0.0149,0.0000,252,327,384,309,0.00,0.01,2.61,0.16,0.0848,1,1,0,0.01,0.00,0.55,-0.06,0.00,0.00,0.16,209,30
4711,-0.3,0.2,-0.2,0.012,0.007,-1.012,4.9,-4.0,0.0,0.0201,-0.0155,0.0000,251,326,385,310,0.00,0.01,2.61,0.16,0.0848,1,1,0,0.01,0.00,0.55,-0.05,0.00,0.00,0.16,209,30
4721,0.0,-0.1,0.0,0.016,0.001,-1.007,4.9,-4.0,0.0,0.0197,-0.0151,0.0000,275,350,407,333,0.00,0.01,2.61,0.16,0.0970,1,1,0,0.01,0.00,0.55,-0.06,0.00,0.00,0.16,209,30
4731,0.0,0.4,-0.2,0.015,0.011,-1.009,4.9,-4.0,0.0,0.0198,-0.0157,0.0000,274,348,408,334,0.00,0.01,2.61,0.16,0.0970,1,1,0,0.01,0.00,0.55,-0.06,0.00,0.00,0.16,209,30
4741,0.0,0.0,0.2,0.016,0.005,-1.017,4.9,-4.0,0.0,0.0197,-0.0154,0.0000,287,362,420,346,0.00,0.01,2.61,0.16,0.1037,1,1,0,0.01,0.00,0.55,-0.05,0.00,0.00,0.16,209,30
4751,0.0,-0.2,0.5,0.018,0.011,-1.015,4.9,-4.0,0.0,0.0198,-0.0151,0.0000,287,363,420,345,0.00,0.01,2.61,0.16,0.1037,1,1,0,0.01,0.00,0.55,-0.06,0.00,0.00,0.16,209,30
4761,-0.3,0.5,-0.2,0.008,0.007,-1.020,4.9,-4.0,0.0,0.0201,-0.0158,0.0000,286,362,422,345,0.00,0.01,2.61,0.16,0.1037,1,1,0,0.01,0.00,0.55,-0.05,0.00,0.00,0.16,209,30
4771,0.0,-0.3,-0.1,0.023,0.006,-1.012,4.9,-4.0,0.0,0.0198,-0.0150,0.0000,288,363,420,345,0.00,0.01,2.61,0.16,0.1037,1,1,0,0.01,0.00,0.55,-0.06,0.00,0.00,0.16,209,30
4781,-0.1,0.0,-0.2,0.010,0.003,-1.014,4.9,-4.0,0.0,0.0199,-0.0154,0.0000,288,363,420,345,0.00,0.01,2.61,0.16,0.1037,1,1,0,0.01,0.00,0.55,-0.05,0.00,0.00,0.16,209,30
4792,0.1,-0.1,0.3,0.013,0.006,-1.012,4.9,-4.0,0.0,0.0196,-0.0152,0.0000,288,362,420,346,0.00,0.01,2.61,0.16,0.1037,1,1,0,0.01,0.00,0.55,-0.06,0.00,0.00,0.16,209,30
4802,0.2,-0.4,-0.2,0.012,0.005,-1.018,4.9,-4.0,0.0,0.0195,-0.0149,0.0000,307,381,438,364,0.00,0.01,2.61,0.16,0.1134,1,1,0,0.01,0.00,0.55,-0.06,0.00,0.00,0.16,209,30
4812,0.4,0.0,0.1,0.015,0.004,-1.018,4.9,-4.0,0.0,0.0194,-0.0154,0.0000,306,379,439,365,0.00,0.01,2.61,0.16,0.1134,1,1,0,0.01,0.00,0.55,-0.06,0.00,0.00,0.16,209,30
4822,0.3,-0.3,0.1,0.016,0.009,-1.015,4.9,-4.0,0.0,0.0195,-0.0150,0.0000,307,381,438,364,0.00,0.01,2.61,0.16,0.1134,1,1,0,0.01,0.00,0.55,-0.06,0.00,0.00,0.16,209,30
4832,0.3,-0.2,0.2,0.019,0.004,-1.013,4.9,-4.0,0.0,0.0195,-0.0152,0.0000,307,380,438,364,0.00,0.01,2.61,0.16,0.1134,1,1,0,0.01,0.00,0.55,-0.06,0.00,0.00,0.16,209,30
4842,0.3,0.2,-1.1,0.013,0.010,-1.009,4.9,-4.0,0.0,0.0195,-0.0156,0.0001,307,381,440,366,0.00,0.01,2.61,0.16,0.1140,1,1,0,0.01,0.00,0.55,-0.06,0.00,0.00,0.16,209,30
4852,0.1,-0.4,1.2,0.017,0.010,-1.010,4.9,-4.0,0.0,0.0197,-0.0152,-0.0001,307,382,439,365,0.00,0.01,2.61,0.16,0.1140,1,1,0,0.01,0.00,0.55,-0.06,0.00,0.00,0.16,209,30
4862,0.0,-0.3,-0.4,0.022,0.008,-1.019,4.9,-4.0,0.0,0.0197,-0.0150,0.0000,307,382,440,365,0.00,0.01,2.61,0.16,0.1140,1,1,0,0.01,0.00,0.55,-0.06,0.00,0.00,0.16,209,30
4872,-0.1,0.2,-0.3,0.004,0.007,-1.011,4.9,-4.0,0.0,0.0200,-0.0156,0.0000,306,381,441,365,0.00,0.01,2.61,0.16,0.1140,1,1,0,0.01,0.00,0.55,-0.06,0.00,0.00,0.16,209,30
4882,0.1,-0.6,0.1,0.012,0.017,-1.019,4.9,-4.0,0.0,0.0196,-0.0150,0.0000,308,382,439,365,0.00,0.01,2.61,0.16,0.1140,1,1,0,0.01,0.00,0.55,-0.06,0.00,0.00,0.16,209,30
4892,0.1,-0.4,0.2,0.022,0.005,-1.010,4.9,-4.0,0.0,0.0197,-0.0150,0.0000,308,382,439,365,0.00,0.01,2.61,0.16,0.1140,1,1,0,0.01,0.00,0.55,-0.06,0.00,0.00,0.16,209,30
4902,0.3,-0.1,-0.3,0.015,0.015,-1.030,4.9,-4.0,0.0,0.0196,-0.0156,0.0000,307,381,440,366,0.00,0.01,2.61,0.16,0.1140,1,1,0,0.01,0.00,0.55,-0.06,0.00,0.00,0.16,209,30
4913,0.4,-0.1,-0.1,0.008,0.012,-0.997,4.9,-4.0,0.0,0.0193,-0.0154,0.0000,308,381,439,366,0.00,0.01,2.61,0.16,0.1140,1,1,0,0.01,0.00,0.55,-0.06,0.00,0.00,0.16,209,30
4923,0.0,-0.2,0.5,0.019,0.013,-1.015,4.9,-4.0,0.0,0.0198,-0.0152,0.0000,309,384,442,367,0.00,0.01,2.61,0.16,0.1153,1,1,0,0.01,0.00,0.55,-0.06,0.00,0.00,0.16,209,30
4933,0.4,-0.4,0.1,0.012,0.016,-1.013,4.9,-4.0,0.0,0.0194,-0.0149,0.0000,311,385,441,367,0.00,0.01,2.61,0.16,0.1153,1,1,0,0.01,0.00,0.55,-0.06,0.00,0.00,0.16,209,30
4943,0.0,-0.3,-0.9,0.016,0.012,-1.016,4.9,-4.0,0.0,0.0198,-0.0153,0.0000,309,384,443,367,0.00,0.01,2.61,0.16,0.1153,1,1,0,0.01,0.00,0.55,-0.06,0.00,0.00,0.16,209,30
4953,-0.1,0.2,0.9,0.014,0.004,-1.003,4.9,-4.0,0.0,0.0200,-0.0156,0.0000,308,383,443,369,0.00,0.01,2.61,0.16,0.1153,1,1,0,0.01,0.00,0.55,-0.05,0.00,0.00,0.16,208,30
4963,-0.1,-0.5,0.4,0.027,0.010,-1.005,4.9,-4.0,0.0,0.0200,-0.0150,0.0000,312,388,444,369,0.00,0.01,2.61,0.16,0.1165,1,1,0,0.01,0.00,0.55,-0.06,0.00,0.00,0.16,208,30
4973,0.2,0.0,-1.0,0.017,0.008,-1.016,4.9,-4.0,0.0,0.0195,-0.0156,0.0001,312,385,445,371,0.00,0.01,2.61,0.16,0.1165,1,1,0,0.01,0.00,0.55,-0.06,0.00,0.00,0.16,208,30
4983,0.0,-0.7,-0.2,0.020,0.008,-1.031,4.9,-4.0,0.0,0.0199,-0.0147,0.0000,312,387,444,369,0.00,0.01,2.61,0.16,0.1165,1,1,0,0.01,0.00,0.55,-0.06,0.00,0.00,0.16,208,30
4993,0.0,0.0,0.5,0.000,0.003,-1.021,4.9,-4.0,0.0,0.0200,-0.0155,0.0000,311,387,445,370,0.00,0.01,2.61,0.16,0.1165,1,1,0,0.01,0.00,0.55,-0.06,0.00,0.00,0.16,208,30
5003,0.1,-0.5,-0.6,0.013,0.001,-1.027,4.9,-4.0,0.0,0.0196,-0.0151,0.0000,312,387,444,369,0.00,0.01,2.61,0.16,0.1165,1,1,0,0.01,0.00,0.55,-0.06,0.00,0.00,0.16,208,30
5013,0.3,-0.9,-0.4,0.002,0.018,-1.028,4.9,-4.0,0.0,0.0195,-0.0145,0.0000,313,387,443,369,0.00,0.01,2.61,0.16,0.1165,1,1,0,0.01,0.00,0.55,-0.06,0.00,0.00,0.16,208,30
5023,0.0,-0.2,0.3,0.012,0.010,-1.018,4.9,-4.0,0.0,0.0200,-0.0152,0.0000,311,387,445,369,0.00,0.01,2.61,0.16,0.1165,1,1,0,0.01,0.00,0.55,-0.06,0.00,0.00,0.16,208,30
5034,0.0,-0.4,0.0,0.012,0.011,-1.006,4.9,-4.0,0.0,0.0198,-0.0150,0.0000,312,387,444,369,0.00,0.01,2.61,0.16,0.1165,1,1,0,0.01,0.00,0.55,-0.06,0.00,0.00,0.16,208,30
5044,-0.1,-0.9,0.0,0.011,0.007,-1.015,4.9,-4.0,0.0,0.0200,-0.0145,0.0000,313,388,444,368,0.00,0.01,2.61,0.16,0.1165,1,1,0,0.01,0.00,0.55,-0.06,0.00,0.00,0.16,208,30
5054,0.1,-0.5,0.4,0.020,0.006,-1.003,4.9,-4.0,0.0,0.0198,-0.0148,0.0000,313,388,443,369,0.00,0.01,2.61,0.16,0.1165,1,1,0,0.01,0.00,0.55,-0.06,0.00,0.00,0.16,208,30
5064,0.1,-0.3,-0.4,0.013,0.000,-1.023,4.9,-4.0,0.0,0.0198,-0.0151,0.0000,312,387,445,369,0.00,0.01,2.61,0.16,0.1165,1,1,0,0.01,0.00,0.55,-0.06,0.00,0.00,0.16,208,30
5074,0.1,0.3,-0.1,0.012,0.007,-1.002,4.9,-4.0,0.0,0.0197,-0.0158,0.0000,311,386,445,370,0.00,0.01,2.61,0.16,0.1165,1,1,0,0.01,0.00,0.55,-0.06,0.00,0.00,0.16,208,30
5084,0.0,-0.2,0.0,0.017,0.000,-1.007,4.9,-4.0,0.0,0.0199,-0.0150,0.0000,312,387,444,369,0.00,0.01,2.61,0.16,0.1165,1,1,0,0.01,0.00,0.55,-0.06,0.00,0.00,0.16,209,30
5094,0.2,-0.3,-0.5,0.016,0.009,-1.008,4.9,-4.0,0.0,0.0197,-0.0151,0.0000,312,387,444,369,0.00,0.01,2.61,0.16,0.1165,1,1,0,0.01,0.00,0.55,-0.06,0.00,0.00,0.16,209,30
5104,0.0,-0.5,0.2,0.017,0.005,-1.029,4.9,-4.0,0.0,0.0200,-0.0149,0.0000,312,388,444,368,0.00,0.01,2.61,0.16,0.1165,1,1,0,0.01,0.00,0.55,-0.05,0.00,0.00,0.16,209,30
5114,0.0,0.1,0.0,0.013,0.007,-1.005,4.9,-4.0,0.0,0.0198,-0.0155,0.0000,311,386,445,370,0.00,0.01,2.61,0.16,0.1165,1,1,0,0.01,0.00,0.55,-0.06,0.00,0.00,0.16,209,30
5124,0.1,-0.1,0.1,0.010,0.011,-1.022,4.9,-4.0,0.0,0.0198,-0.0153,0.0000,313,388,445,370,0.00,0.01,2.61,0.16,0.1171,1,1,0,0.01,0.00,0.55,-0.06,0.00,0.00,0.16,209,30
5134,-0.4,0.0,-0.2,0.012,0.009,-1.022,4.9,-4.0,0.0,0.0202,-0.0152,0.0000,312,389,446,370,0.00,0.01,2.61,0.16,0.1171,1,1,0,0.01,0.00,0.55,-0.06,0.00,0.00,0.16,209,30
5145,0.1,0.4,0.7,0.010,0.000,-1.023,4.9,-4.0,0.0,0.0198,-0.0159,0.0000,312,387,446,372,0.00,0.01,2.61,0.16,0.1171,1,1,0,0.01,0.00,0.55,-0.06,0.00,0.00,0.16,209,30
5155,0.0,0.1,-0.3,0.016,0.008,-1.005,4.9,-4.0,0.0,0.0199,-0.0156,0.0000,312,387,447,371,0.00,0.01,2.61,0.16,0.1171,1,1,0,0.01,0.00,0.55,-0.05,0.00,0.00,0.16,209,30
5165,0.2,0.2,0.2,0.006,0.001,-1.020,4.9,-4.0,0.0,0.0196,-0.0158,0.0000,312,387,446,372,0.00,0.01,2.61,0.16,0.1171,1,1,0,0.01,0.00,0.55,-0.05,0.00,0.00,0.16,209,30
5175,0.0,0.4,0.3,0.007,0.011,-1.015,4.9,-4.0,0.0,0.0200,-0.0159,0.0000,312,387,447,371,0.00,0.01,2.61,0.16,0.1171,1,1,0,0.01,0.00,0.55,-0.05,0.00,0.00,0.16,208,30
5185,0.0,0.0,0.0,0.008,0.002,-1.024,4.9,-4.0,0.0,0.0198,-0.0155,0.0000,312,387,446,371,0.00,0.01,2.61,0.16,0.1171,1,1,0,0.01,0.00,0.55,-0.05,0.00,0.00,0.16,208,30
5195,-0.5,0.5,-0.8,0.012,0.010,-1.009,4.9,-4.0,0.0,0.0205,-0.0160,0.0000,310,388,448,371,0.00,0.01,2.61,0.16,0.1171,1,1,0,0.01,0.00,0.55,-0.05,0.00,0.00,0.16,208,30
5205,0.0,0.5,0.2,0.013,0.002,-1.001,4.9,-4.0,0.0,0.0200,-0.0160,0.0000,311,387,447,372,0.00,0.01,2.61,0.16,0.1171,1,1,0,0.01,0.00,0.55,-0.05,0.00,0.00,0.16,208,30
5215,-0.1,0.0,0.0,0.005,0.009,-1.028,4.9,-4.0,0.0,0.0200,-0.0158,0.0000,311,387,447,371,0.00,0.01,2.61,0.16,0.1171,1,1,0,0.01,0.00,0.55,-0.05,0.00,0.00,0.16,208,30
5225,0.1,0.2,-0.4,0.012,-0.006,-1.017,4.9,-4.0,0.0,0.0198,-0.0157,0.0000,312,387,447,372,0.00,0.01,2.61,0.16,0.1171,1,1,0,0.01,0.00,0.55,-0.05,0.00,0.00,0.16,208,30
5235,-0.3,0.1,0.1,0.012,0.002,-1.026,4.9,-4.0,0.0,0.0203,-0.0156,0.0000,311,388,448,371,0.00,0.01,2.61,0.16,0.1171,1,1,0,0.01,0.00,0.55,-0.05,0.00,0.00,0.16,208,30
5245,-0.1,0.4,0.0,0.007,0.001,-1.016,4.9,-4.0,0.0,0.0201,-0.0160,0.0000,313,389,450,374,0.00,0.01,2.61,0.16,0.1183,1,1,0,0.01,0.00,0.55,-0.05,0.00,0.00,0.16,208,30
5256,-0.1,-0.6,-1.0,0.013,0.010,-1.020,4.9,-4.0,0.0,0.0201,-0.0149,0.0001,315,391,449,372,0.00,0.01,2.61,0.16,0.1183,1,1,0,0.01,0.00,0.55,-0.05,0.00,0.00,0.16,208,30
5266,0.0,-0.3,0.8,0.012,0.009,-1.017,4.9,-4.0,0.0,0.0200,-0.0155,0.0000,314,390,449,373,0.00,0.01,2.61,0.16,0.1183,1,1,0,0.01,0.00,0.55,-0.05,0.00,0.00,0.16,208,30
5276,0.0,-0.5,-0.2,0.020,0.008,-1.024,4.9,-4.0,0.0,0.0200,-0.0151,0.0000,315,390,448,373,0.00,0.01,2.61,0.16,0.1183,1,1,0,0.01,0.00,0.55,-0.05,0.00,0.00,0.16,208,30
5286,0.2,-0.3,-0.7,0.011,0.004,-1.005,4.9,-4.0,0.0,0.0198,-0.0151,0.0000,315,390,449,373,0.00,0.01,2.61,0.16,0.1183,1,1,0,0.01,0.00,0.55,-0.05,0.00,0.00,0.16,208,30
5296,0.0,-0.3,0.3,0.020,0.006,-1.020,4.9,-4.0,0.0,0.0202,-0.0152,0.0000,314,391,449,372,0.00,0.01,2.61,0.16,0.1183,1,1,0,0.01,0.00,0.55,-0.05,0.00,0.00,0.16,208,30
5306,0.2,-1.0,0.0,0.009,0.008,-1.012,4.9,-4.0,0.0,0.0197,-0.0145,0.0000,317,391,446,372,0.00,0.01,2.61,0.16,0.1183,1,1,0,0.01,0.00,0.55,-0.05,0.00,0.00,0.16,208,30
5316,0.0,-0.3,-0.1,0.013,0.004,-1.019,4.9,-4.0,0.0,0.0199,-0.0152,0.0000,315,390,449,372,0.00,0.01,2.61,0.16,0.1183,1,1,0,0.01,0.00,0.55,-0.05,0.00,0.00,0.15,208,30
5326,0.5,-1.1,-0.6,0.012,0.016,-1.012,4.9,-4.0,0.0,0.0194,-0.0144,0.0000,317,391,446,372,0.00,0.01,2.61,0.16,0.1183,1,1,0,0.01,0.00,0.55,-0.05,0.00,0.00,0.15,208,30
5336,0.0,0.0,0.7,0.003,0.008,-1.018,4.9,-4.0,0.0,0.0201,-0.0156,0.0000,314,391,448,373,0.00,0.01,2.61,0.16,0.1183,1,1,0,0.01,0.00,0.55,-0.05,0.00,0.00,0.15,208,30
5346,0.1,-0.6,0.4,0.012,0.013,-1.006,4.9,-3.9,0.0,0.0196,-0.0148,0.0000,317,391,447,372,0.00,0.01,2.61,0.16,0.1183,1,1,0,0.01,0.00,0.55,-0.05,0.00,0.00,0.15,208,30
5356,0.0,-0.4,-1.0,0.014,0.008,-1.033,4.9,-3.9,0.0,0.0201,-0.0151,0.0001,315,391,448,372,0.00,0.01,2.61,0.16,0.1183,1,1,0,0.01,0.00,0.55,-0.05,0.00,0.00,0.15,208,30
5367,0.0,0.3,0.4,0.014,0.003,-1.004,4.9,-3.9,0.0,0.0201,-0.0159,0.0000,315,390,448,373,0.00,0.01,2.61,0.16,0.1183,1,1,0,0.01,0.00,0.55,-0.05,0.00,0.00,0.15,208,30
5377,0.2,0.1,0.8,0.011,0.006,-1.018,4.9,-3.9,0.0,0.0198,-0.0156,0.0000,314,390,448,373,0.00,0.01,2.61,0.16,0.1183,1,1,0,0.01,0.00,0.55,-0.05,0.00,0.00,0.15,208,30
5387,0.1,-0.2,-0.5,0.018,0.015,-1.001,4.9,-3.9,0.0,0.0199,-0.0153,0.0000,315,391,448,372,0.00,0.01,2.61,0.16,0.1183,1,1,0,0.01,0.00,0.55,-0.05,0.00,0.00,0.15,208,30
5397,0.1,0.3,-0.5,0.017,0.005,-1.023,4.9,-4.0,0.0,0.0199,-0.0159,0.0000,314,389,449,374,0.00,0.01,2.61,0.16,0.1183,1,1,0,0.01,0.00,0.55,-0.05,0.00,0.00,0.15,208,30
5407,0.1,-0.1,0.5,0.015,0.004,-1.001,4.9,-3.9,0.0,0.0198,-0.0155,0.0000,315,390,448,373,0.00,0.01,2.61,0.16,0.1183,1,1,0,0.01,0.00,0.55,-0.05,0.00,0.00,0.15,208,30
5417,0.2,0.8,0.6,0.017,0.007,-1.024,4.9,-4.0,0.0,0.0198,-0.0164,0.0000,313,388,450,375,0.00,0.01,2.61,0.16,0.1183,1,1,0,0.01,0.00,0.55,-0.05,0.00,0.00,0.15,208,30
5427,0.3,0.1,-0.7,0.005,0.006,-0.994,4.9,-3.9,0.0,0.0199,-0.0157,0.0001,314,389,449,373,0.00,0.01,2.61,0.16,0.1183,1,1,0,0.01,0.00,0.55,-0.05,0.00,0.00,0.15,208,30
5437,0.0,0.3,-0.1,0.012,0.009,-1.035,4.9,-4.0,0.0,0.0200,-0.0160,0.0000,313,389,450,375,0.00,0.01,2.61,0.16,0.1183,1,1,0,0.01,0.00,0.55,-0.05,0.00,0.00,0.15,208,30
5447,0.2,-0.2,1.2,0.009,0.007,-1.012,4.9,-3.9,0.0,0.0199,-0.0153,-0.0001,315,390,448,373,0.00,0.01,2.61,0.16,0.1183,1,1,0,0.01,0.00,0.55,-0.05,0.00,0.00,0.15,208,30
5457,-0.1,-0.2,-0.9,0.023,0.006,-1.019,4.9,-4.0,0.0,0.0202,-0.0154,0.0001,314,390,450,373,0.00,0.01,2.61,0.16,0.1183,1,1,0,0.01,0.00,0.55,-0.05,0.00,0.00,0.15,208,30
5467,0.1,0.5,-0.3,0.013,0.006,-1.007,4.9,-4.0,0.0,0.0200,-0.0162,0.0000,313,388,450,375,0.00,0.01,2.61,0.16,0.1183,1,1,0,0.01,0.00,0.55,-0.05,0.00,0.00,0.15,208,30
5478,0.0,-0.5,0.5,0.015,0.007,-1.026,4.9,-4.0,0.0,0.0203,-0.0150,0.0000,314,392,448,372,0.00,0.01,2.61,0.16,0.1183,1,1,0,0.01,0.00,0.55,-0.05,0.00,0.00,0.15,208,30
5488,0.0,-0.1,0.3,0.013,0.009,-1.015,4.9,-4.0,0.0,0.0202,-0.0154,0.0000,314,390,449,373,0.00,0.01,2.61,0.16,0.1183,1,1,0,0.01,0.00,0.55,-0.05,0.00,0.00,0.15,207,30
5498,0.0,-1.1,-1.0,0.022,0.012,-1.024,4.9,-4.0,0.0,0.0201,-0.0145,0.0001,316,391,447,372,0.00,0.01,2.61,0.15,0.1183,1,1,0,0.01,0.00,0.55,-0.05,0.00,0.00,0.15,207,30
5508,0.0,-0.2,0.3,0.016,0.008,-0.994,4.9,-4.0,0.0,0.0202,-0.0154,0.0000,314,390,449,373,0.00,0.01,2.61,0.15,0.1183,1,1,0,0.01,0.00,0.55,-0.05,0.00,0.00,0.15,207,30
5518,0.0,-0.5,0.4,0.016,0.005,-1.019,4.9,-4.0,0.0,0.0201,-0.0151,0.0000,315,391,448,372,0.00,0.01,2.61,0.15,0.1183,1,1,0,0.01,0.00,0.55,-0.05,0.00,0.00,0.15,207,30
5528,0.2,-0.4,-1.0,0.009,0.011,-1.010,4.9,-4.0,0.0,0.0199,-0.0152,0.0001,316,391,448,372,0.00,0.01,2.61,0.15,0.1183,1,1,0,0.01,0.00,0.55,-0.05,0.00,0.00,0.15,207,30
5538,0.0,0.0,0.3,0.015,0.002,-1.023,4.9,-4.0,0.0,0.0201,-0.0155,0.0000,314,390,449,373,0.00,0.01,2.61,0.15,0.1183,1,1,0,0.01,0.00,0.55,-0.05,0.00,0.00,0.15,207,30
5548,0.4,-0.1,0.6,0.004,0.013,-1.006,4.9,-4.0,0.0,0.0197,-0.0154,0.0000,315,390,448,373,0.00,0.01,2.61,0.15,0.1183,1,1,0,0.01,0.00,0.55,-0.05,0.00,0.00,0.15,207,30
5558,-0.2,-0.3,-0.8,0.005,0.004,-1.025,4.9,-4.0,0.0,0.0204,-0.0153,0.0000,315,391,448,371,0.00,0.01,2.61,0.15,0.1183,1,1,0,0.01,0.00,0.55,-0.05,0.00,0.00,0.15,207,30
5568,0.0,0.0,0.1,0.017,0.008,-1.000,4.9,-4.0,0.0,0.0198,-0.0155,0.0000,316,391,449,375,0.00,0.01,2.61,0.15,0.1189,1,1,0,0.01,0.00,0.55,-0.05,0.00,0.00,0.15,207,30
5578,0.1,-0.3,0.6,0.015,-0.005,-1.037,4.9,-4.0,0.0,0.0200,-0.0152,0.0000,316,392,449,374,0.00,0.01,2.61,0.15,0.1189,1,1,0,0.01,0.00,0.55,-0.05,0.00,0.00,0.15,207,30
5588,0.0,0.4,-0.2,0.012,0.009,-1.007,4.9,-4.0,0.0,0.0202,-0.0161,0.0000,314,391,451,374,0.00,0.01,2.61,0.15,0.1189,1,1,0,0.01,0.00,0.55,-0.05,0.00,0.00,0.15,207,30
5599,0.0,0.2,-0.4,0.018,0.003,-1.015,4.9,-4.0,0.0,0.0201,-0.0159,0.0000,315,391,450,374,0.00,0.01,2.61,0.15,0.1189,1,1,0,0.01,0.00,0.55,-0.05,0.00,0.00,0.15,207,30
5609,-0.1,0.6,0.6,0.009,0.006,-1.006,4.9,-4.0,0.0,0.0202,-0.0162,0.0000,331,408,469,393,0.00,0.01,2.61,0.15,0.1281,1,1,0,0.01,0.00,0.55,-0.05,0.00,0.00,0.15,207,30
5619,0.0,-0.3,0.5,0.017,-0.006,-1.025,4.9,-4.0,0.0,0.0201,-0.0153,0.0000,333,409,467,391,0.00,0.01,2.61,0.15,0.1281,1,1,0,0.01,0.00,0.55,-0.05,0.00,0.00,0.15,207,30
5629,0.0,0.0,-1.4,0.013,0.019,-1.007,4.9,-4.0,0.0,0.0203,-0.0158,0.0001,331,408,469,391,0.00,0.01,2.61,0.15,0.1281,1,1,0,0.01,0.00,0.55,-0.05,0.00,0.00,0.15,207,30
5639,0.0,0.0,0.8,0.015,0.002,-1.021,4.9,-4.0,0.0,0.0203,-0.0156,0.0000,332,409,468,391,0.00,0.01,2.61,0.15,0.1281,1,1,0,0.01,0.00,0.55,-0.05,0.00,0.00,0.15,207,30
5649,0.0,-0.2,0.6,0.009,0.012,-1.011,4.9,-4.0,0.0,0.0202,-0.0155,0.0000,332,409,468,391,0.00,0.01,2.61,0.15,0.1281,1,1,0,0.01,0.00,0.55,-0.05,0.00,0.00,0.15,207,30
5659,-0.2,0.1,-1.3,0.016,0.004,-1.020,4.9,-4.0,0.0,0.0203,-0.0160,0.0001,331,408,469,392,0.00,0.01,2.61,0.15,0.1281,1,1,0,0.01,0.00,0.55,-0.05,0.00,0.00,0.15,208,30
5669,0.3,0.1,0.6,0.014,0.000,-1.006,4.9,-4.0,0.0,0.0198,-0.0158,0.0000,333,408,467,393,0.00,0.01,2.61,0.15,0.1281,1,1,0,0.01,0.00,0.55,-0.05,0.00,0.00,0.15,208,30
5679,0.0,-0.4,0.4,0.016,0.004,-1.021,4.9,-4.0,0.0,0.0202,-0.0150,0.0000,333,410,466,390,0.00,0.01,2.61,0.15,0.1281,1,1,0,0.01,0.00,0.55,-0.05,0.00,0.00,0.15,208,30
5689,0.4,0.9,-0.5,0.004,0.006,-1.021,4.9,-4.0,0.0,0.0198,-0.0166,0.0000,332,407,470,395,0.00,0.01,2.61,0.15,0.1287,1,1,0,0.01,0.00,0.55,-0.05,0.00,0.00,0.15,208,30
5699,0.3,-0.9,-0.2,0.013,0.007,-1.028,4.9,-4.0,0.0,0.0199,-0.0147,0.0000,336,411,466,391,0.00,0.01,2.61,0.15,0.1287,1,1,0,0.01,0.00,0.55,-0.05,0.00,0.00,0.15,208,30
5709,0.0,0.1,0.5,0.012,0.006,-1.004,4.9,-4.0,0.0,0.0201,-0.0161,0.0000,332,409,470,394,0.00,0.01,2.61,0.15,0.1287,1,1,0,0.01,0.00,0.55,-0.05,0.00,0.00,0.15,208,30
5720,-0.3,-0.1,0.4,0.020,0.009,-1.019,4.9,-4.0,0.0,0.0205,-0.0155,0.0000,333,411,469,391,0.00,0.01,2.61,0.15,0.1287,1,1,0,0.01,0.00,0.55,-0.05,0.00,0.00,0.15,208,30
5730,-0.1,-0.9,-1.1,0.016,0.000,-1.005,4.9,-4.0,0.0,0.0204,-0.0147,0.0001,349,425,482,404,0.00,0.01,2.61,0.15,0.1360,1,1,0,0.01,0.00,0.55,-0.05,0.00,0.00,0.15,208,30
5740,-0.3,0.6,0.7,0.006,0.007,-1.018,4.9,-4.0,0.0,0.0204,-0.0163,0.0000,346,423,484,407,0.00,0.01,2.61,0.15,0.1360,1,1,0,0.01,0.00,0.55,-0.05,0.00,0.00,0.15,208,30
5750,0.3,-0.4,0.9,0.008,0.009,-1.014,4.9,-4.0,0.0,0.0199,-0.0153,0.0000,349,424,481,407,0.00,0.01,2.61,0.15,0.1360,1,1,0,0.01,0.00,0.55,-0.05,0.00,0.00,0.15,208,30
5760,0.1,-0.8,-1.9,0.015,0.018,-1.022,4.9,-4.0,0.0,0.0202,-0.0149,0.0001,348,424,483,405,0.00,0.01,2.61,0.15,0.1360,1,1,0,0.01,0.00,0.55,-0.05,0.00,0.00,0.15,208,30
5770,0.3,0.3,0.8,0.009,0.009,-1.017,4.9,-4.0,0.0,0.0199,-0.0161,0.0000,346,422,484,408,0.00,0.01,2.61,0.15,0.1360,1,1,0,0.01,0.00,0.55,-0.05,0.00,0.00,0.15,208,30
5780,0.2,-1.2,0.4,0.018,0.000,-1.030,4.9,-4.0,0.0,0.0202,-0.0146,0.0000,349,425,481,404,0.00,0.01,2.61,0.15,0.1360,1,1,0,0.01,0.00,0.55,-0.05,0.00,0.00,0.15,208,30
5790,-0.3,-0.1,-0.8,0.020,0.001,-1.006,4.9,-4.0,0.0,0.0206,-0.0159,0.0000,346,423,485,406,0.00,0.01,2.61,0.15,0.1360,1,1,0,0.01,0.00,0.55,-0.05,0.00,0.00,0.15,208,30
5800,0.1,0.6,0.6,0.012,0.007,-1.028,4.9,-4.0,0.0,0.0201,-0.0164,0.0000,347,424,485,409,0.00,0.01,2.61,0.15,0.1366,1,1,0,0.01,0.00,0.55,-0.05,0.00,0.00,0.15,208,30
5810,0.0,-1.3,0.2,0.025,0.012,-0.999,4.9,-4.0,0.0,0.0202,-0.0144,0.0000,351,426,482,406,0.00,0.01,2.61,0.15,0.1366,1,1,0,0.01,0.00,0.55,-0.05,0.00,0.00,0.15,208,30
5820,0.1,1.1,-1.2,0.011,0.021,-1.016,4.9,-4.0,0.0,0.0202,-0.0172,0.0001,366,442,508,431,0.00,0.01,2.61,0.15,0.1476,1,1,0,0.01,0.00,0.55,-0.05,0.00,0.00,0.15,209,30
5831,0.0,-0.3,0.7,0.011,0.010,-1.001,4.9,-4.0,0.0,0.0202,-0.0153,0.0000,370,446,503,428,0.00,0.01,2.61,0.15,0.1476,1,1,0,0.01,0.00,0.55,-0.05,0.00,0.00,0.15,209,30
5841,0.3,-1.2,0.7,0.017,0.010,-1.029,4.9,-4.0,0.0,0.0199,-0.0146,0.0000,370,446,503,428,0.00,0.01,2.61,0.15,0.1476,1,1,0,0.01,0.00,0.55,-0.05,0.00,0.00,0.15,209,30
5851,-0.2,2.0,-0.8,-0.001,0.008,-1.000,4.9,-4.0,0.0,0.0206,-0.0178,0.0000,365,442,510,431,0.00,0.01,2.61,0.15,0.1476,1,1,0,0.01,0.00,0.55,-0.05,0.00,0.00,0.15,208,30
5861,0.1,-1.7,0.1,0.024,0.011,-1.004,4.9,-4.0,0.0,0.0201,-0.0140,0.0000,373,449,501,425,0.00,0.01,2.61,0.15,0.1476,1,1,0,0.01,0.00,0.55,-0.05,0.00,0.00,0.15,208,30
5871,0.1,-0.5,0.5,0.022,0.003,-1.017,4.9,-4.0,0.0,0.0202,-0.0156,0.0000,369,445,505,429,0.00,0.01,2.61,0.15,0.1476,1,1,0,0.01,0.00,0.55,-0.05,0.00,0.00,0.15,208,30
5881,-0.2,1.3,0.0,0.004,0.009,-1.026,4.9,-4.0,0.0,0.0206,-0.0171,0.0000,366,444,508,430,0.00,0.01,2.61,0.15,0.1476,1,1,0,0.01,0.00,0.55,-0.05,0.00,0.00,0.15,208,30
5891,0.1,-1.1,-0.4,0.021,0.007,-1.004,4.9,-4.0,0.0,0.0203,-0.0145,0.0000,371,448,503,425,0.00,0.01,2.61,0.15,0.1476,1,1,0,0.01,0.00,0.55,-0.05,0.00,0.00,0.15,208,30
5901,0.1,-0.3,0.4,0.024,0.011,-0.997,4.9,-4.0,0.0,0.0202,-0.0155,0.0000,369,445,505,428,0.00,0.01,2.61,0.15,0.1476,1,1,0,0.01,0.00,0.55,-0.05,0.00,0.00,0.15,208,30
5911,0.0,1.8,0.0,-0.003,-0.004,-1.022,4.9,-4.0,0.0,0.0204,-0.0177,0.0000,365,443,508,431,0.00,0.01,2.61,0.15,0.1476,1,1,0,0.01,0.00,0.55,-0.05,0.00,0.00,0.15,208,30
5921,0.2,-1.7,-0.2,0.026,0.000,-1.021,4.9,-4.0,0.0,0.0201,-0.0140,0.0000,373,448,501,425,0.00,0.01,2.61,0.15,0.1476,1,1,0,0.01,0.00,0.55,-0.05,0.00,0.00,0.15,208,30
5931,0.5,0.7,0.0,0.019,0.023,-1.002,4.9,-4.0,0.0,0.0199,-0.0168,0.0000,367,442,507,431,0.00,0.01,2.61,0.15,0.1476,1,1,0,0.01,0.00,0.55,-0.05,0.00,0.00,0.15,208,30
5942,-0.2,1.6,0.9,-0.001,0.005,-1.019,4.9,-4.0,0.0,0.0206,-0.0175,0.0000,381,459,523,445,0.00,0.01,2.61,0.15,0.1555,1,1,0,0.01,0.00,0.55,-0.05,0.00,0.00,0.15,208,30
5952,0.2,-2.5,-0.1,0.019,0.000,-1.007,4.9,-4.0,0.0,0.0201,-0.0131,0.0000,389,465,515,438,0.00,0.01,2.61,0.15,0.1555,1,1,0,0.01,0.00,0.55,-0.05,0.00,0.00,0.15,208,30
5962,0.0,0.9,-1.6,0.022,0.017,-1.019,4.9,-4.0,0.0,0.0204,-0.0170,0.0001,381,458,524,445,0.00,0.01,2.61,0.15,0.1555,1,1,0,0.01,0.00,0.55,-0.05,0.00,0.00,0.15,208,30
5972,0.1,1.0,1.9,0.005,0.001,-1.001,4.9,-4.0,0.0,0.0202,-0.0168,-0.0001,382,459,521,445,0.00,0.01,2.61,0.15,0.1555,1,1,0,0.01,0.00,0.55,-0.05,0.00,0.00,0.15,208,30
5982,0.7,-1.8,0.1,0.018,0.010,-1.028,4.9,-4.0,0.0,0.0197,-0.0140,0.0000,388,463,516,441,0.00,0.01,2.61,0.15,0.1555,1,1,0,0.01,0.00,0.55,-0.05,0.00,0.00,0.15,208,30
5992,-0.4,1.1,-1.9,0.015,0.000,-1.010,4.9,-4.0,0.0,0.0208,-0.0170,0.0002,380,459,524,444,0.00,0.01,2.61,0.15,0.1555,1,1,0,0.01,0.00,0.55,-0.05,0.00,0.00,0.15,208,30
6002,0.0,0.5,1.5,0.007,0.020,-1.019,4.9,-4.0,0.0,0.0203,-0.0164,-0.0001,382,460,521,444,0.00,0.01,2.61,0.15,0.1555,1,1,0,0.01,0.00,0.55,-0.05,0.00,0.00,0.15,208,30
6012,0.3,-1.8,0.6,0.020,0.005,-1.020,4.9,-4.0,0.0,0.0200,-0.0139,0.0000,387,463,516,441,0.00,0.01,2.61,0.15,0.1555,1,1,0,0.01,0.00,0.55,-0.05,0.00,0.00,0.15,208,30
6022,0.2,0.2,-1.3,0.020,0.010,-1.004,4.9,-4.0,0.0,0.0201,-0.0161,0.0001,382,458,522,445,0.00,0.01,2.61,0.15,0.1555,1,1,0,0.01,0.00,0.55,-0.05,0.00,0.00,0.15,208,30
6032,0.0,0.5,-0.3,0.006,0.010,-1.021,4.9,-4.0,0.0,0.0204,-0.0164,0.0000,382,459,521,444,0.00,0.01,2.61,0.15,0.1555,1,1,0,0.01,0.00,0.55,-0.05,0.00,0.00,0.15,208,30
6042,0.0,-0.4,1.4,0.015,-0.006,-1.009,4.9,-4.0,0.0,0.0203,-0.0154,-0.0001,386,463,520,443,0.00,0.01,2.61,0.15,0.1561,1,1,0,0.01,0.00,0.55,-0.05,0.00,0.00,0.15,208,30
6053,0.3,-0.2,-0.2,0.013,0.003,-1.014,4.9,-4.0,0.0,0.0201,-0.0157,0.0000,384,461,522,444,0.00,0.01,2.61,0.15,0.1561,1,1,0,0.01,0.00,0.55,-0.05,0.00,0.00,0.15,208,30
6063,-0.5,0.2,-1.6,0.023,0.011,-1.017,4.9,-4.0,0.0,0.0211,-0.0160,0.0001,383,463,524,443,0.00,0.01,2.61,0.15,0.1561,1,1,0,0.01,0.00,0.55,-0.05,0.00,0.00,0.15,208,30
6073,0.0,-0.7,1.4,0.002,-0.004,-1.006,4.9,-4.0,0.0,0.0204,-0.0151,-0.0001,386,463,519,444,0.00,0.01,2.61,0.15,0.1561,1,1,0,0.01,0.00,0.55,-0.05,0.00,0.00,0.15,208,30
6083,0.0,-0.6,0.1,0.021,0.010,-1.023,4.9,-4.0,0.0,0.0203,-0.0152,0.0000,401,477,535,458,0.00,0.01,2.61,0.15,0.1641,1,1,0,0.01,0.00,0.55,-0.05,0.00,0.00,0.15,208,30
6093,-0.2,0.6,-0.8,0.013,0.012,-0.996,4.9,-4.0,0.0,0.0207,-0.0165,0.0000,398,476,539,460,0.00,0.01,2.61,0.15,0.1641,1,1,0,0.01,0.00,0.55,-0.05,0.00,0.00,0.15,208,30
6103,0.0,0.6,0.4,0.008,0.001,-1.007,4.9,-4.0,0.0,0.0203,-0.0165,0.0000,399,476,536,460,0.00,0.01,2.61,0.15,0.1641,1,1,0,0.01,0.00,0.55,-0.05,0.00,0.00,0.15,208,30
6113,0.3,-0.3,0.4,0.025,0.016,-1.017,4.9,-4.0,0.0,0.0201,-0.0155,0.0000,401,477,535,459,0.00,0.01,2.61,0.15,0.1641,1,1,0,0.01,0.00,0.55,-0.05,0.00,0.00,0.15,208,30
6123,0.1,-0.4,-0.3,0.016,0.012,-1.016,4.9,-4.0,0.0,0.0202,-0.0154,0.0000,400,476,536,459,0.00,0.01,2.61,0.15,0.1641,1,1,0,0.01,0.00,0.55,-0.05,0.00,0.00,0.15,208,30
6133,-0.2,1.4,0.0,0.002,0.006,-1.015,4.9,-4.0,0.0,0.0208,-0.0172,0.0000,396,475,540,461,0.00,0.01,2.61,0.15,0.1641,1,1,0,0.01,0.00,0.55,-0.05,0.00,0.00,0.15,208,30
6143,0.6,-1.7,1.6,0.024,0.011,-1.019,4.9,-4.0,0.0,0.0199,-0.0141,-0.0001,405,482,535,460,0.00,0.01,2.61,0.15,0.1653,1,1,0,0.01,0.00,0.55,-0.05,0.00,0.00,0.15,208,30
6153,0.0,-0.2,-1.1,0.014,-0.009,-1.015,4.9,-4.0,0.0,0.0204,-0.0157,0.0001,401,478,540,462,0.00,0.01,2.61,0.15,0.1653,1,1,0,0.01,0.00,0.55,-0.05,0.00,0.00,0.15,208,30
6164,-0.5,1.1,-1.1,0.014,0.019,-1.019,4.9,-4.0,0.0,0.0210,-0.0171,0.0001,414,494,559,479,0.00,0.01,2.61,0.15,0.1738,1,1,0,0.01,0.00,0.55,-0.05,0.00,0.00,0.15,208,30
6174,0.5,-0.7,2.0,0.011,0.011,-1.002,4.9,-4.0,0.0,0.0199,-0.0152,-0.0001,420,495,552,478,0.00,0.01,2.61,0.15,0.1738,1,1,0,0.01,0.00,0.55,-0.05,0.00,0.00,0.15,208,30
6184,0.3,0.0,-0.8,0.022,0.000,-1.007,4.9,-4.0,0.0,0.0201,-0.0159,0.0000,418,494,555,478,0.00,0.01,2.61,0.15,0.1738,1,1,0,0.01,0.00,0.55,-0.05,0.00,0.00,0.15,208,30
6194,-0.2,-0.1,-1.7,0.029,0.018,-1.026,4.9,-4.0,0.0,0.0207,-0.0161,0.0001,417,494,557,478,0.00,0.01,2.61,0.15,0.1738,1,1,0,0.01,0.00,0.55,-0.05,0.00,0.00,0.15,208,30
6204,0.2,1.0,1.4,-0.002,-0.002,-1.018,4.9,-4.0,0.0,0.0202,-0.0169,-0.0001,416,493,556,480,0.00,0.01,2.61,0.15,0.1738,1,1,0,0.01,0.00,0.55,-0.05,0.00,0.00,0.15,208,30
6214,0.4,0.0,-0.1,0.012,-0.003,-1.021,4.9,-4.0,0.0,0.0200,-0.0159,0.0000,419,495,554,478,0.00,0.01,2.61,0.15,0.1738,1,1,0,0.01,0.00,0.55,-0.05,0.00,0.00,0.15,209,30
6224,-0.6,-2.0,-0.7,0.035,0.005,-1.011,4.9,-4.0,0.0,0.0210,-0.0140,0.0000,420,499,553,474,0.00,0.01,2.61,0.15,0.1738,1,1,0,0.01,0.00,0.55,-0.05,0.00,0.00,0.15,209,30
6234,0.1,2.4,0.4,0.006,0.003,-1.005,4.9,-4.0,0.0,0.0203,-0.0184,0.0000,413,490,560,483,0.00,0.01,2.61,0.15,0.1738,1,1,0,0.01,0.00,0.55,-0.05,0.00,0.00,0.15,209,30
6244,0.0,0.7,1.2,0.006,0.012,-1.019,4.9,-4.0,0.0,0.0205,-0.0167,-0.0001,420,497,557,481,0.00,0.01,2.61,0.15,0.1751,1,1,0,0.01,0.00,0.55,-0.05,0.00,0.00,0.15,209,30
6254,0.1,-2.7,0.1,0.038,0.003,-1.020,4.9,-4.0,0.0,0.0203,-0.0132,0.0000,424,502,553,476,0.00,0.01,2.61,0.15,0.1751,1,1,0,0.01,0.00,0.55,-0.05,0.00,0.00,0.15,209,30
6264,-0.2,1.7,-1.6,0.007,0.008,-1.003,4.9,-4.0,0.0,0.0208,-0.0177,0.0001,417,495,562,482,0.00,0.01,2.61,0.15,0.1751,1,1,0,0.01,0.00,0.55,-0.05,0.00,0.00,0.15,209,30
6275,0.0,0.9,1.1,0.004,0.004,-1.008,4.9,-4.0,0.0,0.0204,-0.0163,-0.0001,420,498,557,480,0.00,0.01,2.61,0.15,0.1751,1,1,0,0.01,0.00,0.55,-0.05,0.00,0.00,0.15,209,30
6285,0.9,-0.9,1.2,0.024,0.017,-1.005,4.9,-4.0,0.0,0.0196,-0.0149,-0.0001,423,497,554,481,0.00,0.01,2.61,0.15,0.1751,1,1,0,0.01,0.00,0.55,-0.05,0.00,0.00,0.15,209,30
6295,0.2,0.5,-2.2,0.015,-0.009,-1.009,4.9,-4.0,0.0,0.0203,-0.0165,0.0002,420,496,559,480,0.00,0.01,2.61,0.15,0.1751,1,1,0,0.01,0.00,0.55,-0.05,0.00,0.00,0.15,209,30
6305,-0.4,-0.6,0.0,0.018,0.014,-1.013,4.9,-4.0,0.0,0.0209,-0.0153,0.0000,420,500,557,478,0.00,0.01,2.61,0.15,0.1751,1,1,0,0.01,0.00,0.55,-0.05,0.00,0.00,0.15,209,30
6315,0.4,0.9,1.9,0.002,0.013,-1.015,4.9,-4.0,0.0,0.0200,-0.0169,-0.0001,418,495,559,483,0.00,0.01,2.61,0.15,0.1751,1,1,0,0.01,0.00,0.55,-0.05,0.00,0.00,0.15,209,30
6345,0.3,1.7,2.3,0.012,0.012,-1.017,4.9,-4.0,0.0,0.0202,-0.0178,-0.0002,416,494,563,486,0.00,0.01,2.61,0.15,0.1757,1,1,0,0.01,0.00,0.55,-0.05,0.00,0.00,0.15,209,30
6355,0.0,0.7,-1.3,-0.001,0.003,-1.027,4.9,-4.0,0.0,0.0205,-0.0167,0.0001,421,498,559,481,0.00,0.01,2.61,0.15,0.1757,1,1,0,0.01,0.00,0.55,-0.05,0.00,0.00,0.15,209,30
6365,0.1,-3.0,-0.6,0.025,-0.006,-1.005,4.9,-4.0,0.0,0.0203,-0.0128,0.0000,427,504,553,476,0.00,0.01,2.61,0.15,0.1757,1,1,0,0.01,0.00,0.55,-0.05,0.00,0.00,0.15,209,30
6375,0.0,1.4,1.5,0.017,0.013,-1.015,4.9,-4.0,0.0,0.0205,-0.0174,-0.0001,417,496,563,485,0.00,0.01,2.61,0.15,0.1757,1,1,0,0.01,0.00,0.55,-0.05,0.00,0.00,0.15,209,30
6385,0.3,-0.2,-1.4,0.011,0.018,-1.023,4.9,-4.0,0.0,0.0202,-0.0157,0.0001,423,498,557,481,0.00,0.01,2.61,0.15,0.1757,1,1,0,0.01,0.00,0.55,-0.05,0.00,0.00,0.15,209,30
6396,0.2,-1.3,-0.6,0.000,0.005,-1.021,4.9,-4.0,0.0,0.0203,-0.0147,0.0000,424,500,556,479,0.00,0.01,2.61,0.15,0.1757,1,1,0,0.01,0.00,0.55,-0.05,0.00,0.00,0.15,209,30
6406,0.0,1.0,0.2,0.004,0.006,-1.007,4.9,-4.0,0.0,0.0206,-0.0171,0.0000,421,500,563,485,0.00,0.01,2.61,0.15,0.1769,1,1,0,0.01,0.00,0.55,-0.05,0.00,0.00,0.15,209,30
6416,-0.3,-2.8,-0.3,0.028,0.010,-1.027,4.9,-4.0,0.0,0.0210,-0.0131,0.0000,428,506,556,478,0.00,0.01,2.61,0.15,0.1769,1,1,0,0.01,0.00,0.55,-0.05,0.00,0.00,0.15,208,30
6426,0.3,0.8,-0.2,0.002,-0.002,-1.013,4.9,-4.0,0.0,0.0204,-0.0172,0.0000,434,511,576,499,0.00,0.01,2.61,0.15,0.1836,1,1,0,0.01,0.00,0.55,-0.05,0.00,0.00,0.15,208,30
6436,0.1,2.0,-0.8,0.002,0.029,-1.024,4.9,-4.0,0.0,0.0204,-0.0181,0.0000,433,510,577,500,0.00,0.01,2.61,0.15,0.1836,1,1,0,0.01,0.00,0.55,-0.05,0.00,0.00,0.15,208,30
6446,0.0,-5.1,0.6,0.031,0.007,-1.021,4.9,-4.0,0.0,0.0204,-0.0106,0.0000,446,523,563,487,0.00,0.01,2.61,0.15,0.1836,1,1,0,0.01,0.00,0.55,-0.05,0.00,0.00,0.15,208,30
6456,-0.2,1.3,1.1,0.011,-0.003,-1.015,4.9,-4.0,0.0,0.0207,-0.0175,0.0000,432,510,577,500,0.00,0.01,2.61,0.15,0.1836,1,1,0,0.01,0.00,0.55,-0.05,0.00,0.00,0.15,208,30
6466,0.2,2.8,-1.7,-0.006,0.009,-1.019,4.9,-4.0,0.0,0.0204,-0.0189,0.0001,431,508,579,501,0.00,0.01,2.61,0.15,0.1836,1,1,0,0.01,0.00,0.55,-0.05,0.00,0.00,0.15,208,30
6476,0.3,-4.2,0.0,0.029,0.016,-1.024,4.9,-4.0,0.0,0.0201,-0.0115,0.0000,445,521,565,489,0.00,0.01,2.61,0.15,0.1836,1,1,0,0.01,0.00,0.55,-0.05,0.00,0.00,0.15,207,30
6486,0.1,1.5,1.6,0.004,-0.001,-1.007,4.9,-4.0,0.0,0.0205,-0.0175,-0.0001,433,511,576,499,0.00,0.01,2.61,0.15,0.1836,1,1,0,0.01,0.00,0.55,-0.05,0.00,0.00,0.15,207,30
6496,-0.8,0.0,-1.5,0.015,0.007,-1.015,4.9,-4.0,0.0,0.0215,-0.0160,0.0001,434,515,576,494,0.00,0.01,2.61,0.15,0.1836,1,1,0,0.01,0.00,0.55,-0.05,0.00,0.00,0.15,207,30
6507,0.7,-2.2,-0.5,0.030,0.013,-1.029,4.9,-4.0,0.0,0.0200,-0.0140,0.0000,440,516,569,494,0.00,0.01,2.61,0.15,0.1836,1,1,0,0.01,0.00,0.55,-0.05,0.00,0.00,0.15,207,30
6517,-0.2,4.3,1.6,-0.014,-0.003,-1.013,4.9,-4.0,0.0,0.0208,-0.0204,-0.0001,428,507,582,504,0.00,0.01,2.61,0.15,0.1836,1,1,0,0.01,0.00,0.55,-0.05,0.00,0.00,0.15,207,30
6527,0.0,-2.7,0.0,0.022,0.018,-1.014,4.9,-3.9,0.0,0.0207,-0.0133,0.0000,441,520,569,490,0.00,0.01,2.61,0.15,0.1836,1,1,0,0.01,0.00,0.55,-0.05,0.00,0.00,0.15,207,30
6537,0.1,-2.3,-1.5,0.044,-0.001,-1.010,4.9,-4.0,0.0,0.0207,-0.0144,0.0001,439,517,571,493,0.00,0.01,2.61,0.15,0.1836,1,1,0,0.01,0.00,0.55,-0.05,0.00,0.00,0.15,207,30
6547,0.2,4.6,1.6,-0.010,-0.001,-1.003,4.9,-4.0,0.0,0.0204,-0.0207,-0.0001,427,505,582,505,0.00,0.01,2.61,0.15,0.1836,1,1,0,0.01,0.00,0.55,-0.05,0.00,0.00,0.15,207,30
6557,0.0,-1.7,-0.1,0.023,0.022,-1.008,4.9,-4.0,0.0,0.0206,-0.0143,0.0000,440,517,570,492,0.00,0.01,2.61,0.15,0.1836,1,1,0,0.01,0.00,0.55,-0.05,0.00,0.00,0.14,207,30
6567,0.9,-1.2,-0.9,0.028,0.000,-1.015,4.9,-4.0,0.0,0.0196,-0.0149,0.0000,440,513,570,497,0.00,0.01,2.61,0.15,0.1836,1,1,0,0.01,0.00,0.55,-0.05,0.00,0.00,0.15,207,30
6577,0.4,2.9,1.7,0.000,0.000,-1.025,4.9,-4.0,0.0,0.0201,-0.0191,-0.0001,429,507,580,503,0.00,0.01,2.61,0.15,0.1836,1,1,0,0.01,0.00,0.55,-0.05,0.00,0.00,0.15,207,30
6587,-0.6,-1.5,-1.2,0.019,0.017,-1.006,4.9,-4.0,0.0,0.0213,-0.0145,0.0001,456,536,589,508,0.00,0.01,2.61,0.15,0.1928,1,1,0,0.01,0.00,0.55,-0.05,0.00,0.00,0.15,207,30
6597,0.0,-0.5,-2.0,0.026,0.000,-1.002,4.8,-4.0,0.0,0.0206,-0.0155,0.0002,454,530,591,514,0.00,0.01,2.61,0.15,0.1928,1,1,0,0.01,0.00,0.55,-0.05,0.00,0.00,0.15,207,30
6607,0.8,3.2,2.3,-0.006,0.017,-1.025,4.9,-4.0,0.0,0.0198,-0.0196,-0.0002,447,523,596,522,0.00,0.01,2.61,0.15,0.1928,1,1,0,0.01,0.00,0.55,-0.05,0.00,0.00,0.15,207,30
6618,-0.2,-3.8,0.0,0.007,0.011,-1.023,4.9,-3.9,0.0,0.0209,-0.0122,0.0000,461,541,583,503,0.00,0.01,2.61,0.15,0.1928,1,1,0,0.01,0.00,0.55,-0.05,0.00,0.00,0.15,208,30
6628,-0.2,-1.3,-0.7,0.038,0.000,-0.995,4.9,-4.0,0.0,0.0209,-0.0154,0.0000,453,531,592,513,0.00,0.01,2.61,0.15,0.1928,1,1,0,0.01,0.00,0.55,-0.05,0.00,0.00,0.15,208,30
6638,0.6,3.2,1.1,0.000,0.009,-1.003,4.9,-4.0,0.0,0.0200,-0.0194,0.0000,447,523,597,522,0.00,0.01,2.61,0.15,0.1928,1,1,0,0.01,0.00,0.55,-0.05,0.00,0.00,0.16,208,30
6648,0.4,-1.3,0.0,0.013,0.023,-1.014,4.9,-4.0,0.0,0.0202,-0.0147,0.0000,458,534,587,510,0.00,0.01,2.61,0.15,0.1928,1,1,0,0.01,0.00,0.55,-0.05,0.00,0.00,0.15,208,30
6658,-0.4,-1.0,0.0,0.024,0.019,-1.021,4.9,-4.0,0.0,0.0210,-0.0152,0.0000,454,533,591,511,0.00,0.01,2.61,0.15,0.1928,1,1,0,0.01,0.00,0.55,-0.05,0.00,0.00,0.15,208,30
6668,0.8,0.7,0.4,0.015,0.003,-1.026,4.9,-4.0,0.0,0.0199,-0.0169,0.0000,453,529,593,518,0.00,0.01,2.61,0.15,0.1934,1,1,0,0.01,0.00,0.55,-0.05,0.00,0.00,0.15,207,30
6678,-0.5,0.1,-0.7,0.009,-0.015,-1.009,4.9,-4.0,0.0,0.0214,-0.0163,0.0000,452,534,595,512,0.00,0.01,2.61,0.15,0.1934,1,1,0,0.01,0.00,0.55,-0.05,0.00,0.00,0.15,207,30
6688,-0.9,-0.8,-0.5,0.032,0.010,-1.019,4.9,-4.0,0.0,0.0216,-0.0155,0.0000,453,533,594,513,0.00,0.01,2.61,0.15,0.1934,1,1,0,0.01,0.00,0.55,-0.05,0.00,0.00,0.15,207,30
6698,1.0,1.3,0.7,0.007,0.012,-1.010,4.8,-4.0,0.0,0.0197,-0.0174,0.0000,453,527,593,520,0.00,0.01,2.61,0.15,0.1934,1,1,0,0.01,0.00,0.55,-0.05,0.00,0.00,0.16,207,30
6708,0.5,0.2,0.4,-0.004,0.001,-1.009,4.9,-4.0,0.0,0.0203,-0.0160,0.0000,455,532,592,515,0.00,0.01,2.61,0.15,0.1934,1,1,0,0.01,0.00,0.55,-0.05,0.00,0.00,0.16,207,30
6718,-1.0,-2.7,-0.9,0.029,0.001,-1.021,4.9,-4.0,0.0,0.0218,-0.0133,0.0000,457,540,590,507,0.00,0.01,2.61,0.15,0.1934,1,1,0,0.01,0.00,0.55,-0.05,0.00,0.00,0.16,208,30
6729,1.1,-0.4,1.8,0.025,0.003,-1.013,4.8,-4.0,0.0,0.0195,-0.0157,-0.0001,456,529,590,518,0.00,0.01,2.61,0.15,0.1934,1,1,0,0.01,0.00,0.55,-0.05,0.00,0.00,0.16,208,30
6739,1.5,2.7,-0.3,-0.006,0.000,-1.011,4.9,-4.0,0.0,0.0194,-0.0189,0.0000,451,525,596,522,0.00,0.01,2.61,0.15,0.1934,1,1,0,0.01,0.00,0.55,-0.05,0.00,0.00,0.16,208,30
6749,-1.3,-0.8,-2.1,0.002,0.003,-1.022,4.9,-4.0,0.0,0.0220,-0.0153,0.0002,472,554,610,526,0.00,0.01,2.61,0.15,0.2025,1,1,0,0.01,0.00,0.55,-0.05,0.00,0.00,0.15,208,30
6759,-0.2,-1.6,2.8,0.032,0.012,-1.001,4.8,-4.0,0.0,0.0209,-0.0148,-0.0002,472,552,608,530,0.00,0.01,2.61,0.15,0.2025,1,1,0,0.01,0.00,0.55,-0.05,0.00,0.00,0.15,208,30
6769,1.1,1.7,0.0,0.000,0.000,-1.020,4.9,-4.0,0.0,0.0195,-0.0179,0.0000,470,543,612,538,0.00,0.01,2.61,0.15,0.2025,1,1,0,0.01,0.00,0.55,-0.05,0.00,0.00,0.15,208,30
6779,-1.0,-1.1,-3.8,0.013,0.000,-1.025,4.9,-4.0,0.0,0.0218,-0.0150,0.0003,472,553,611,526,0.00,0.01,2.61,0.15,0.2025,1,1,0,0.01,0.00,0.55,-0.05,0.00,0.00,0.15,208,30
6789,-0.7,-0.9,1.9,0.030,0.006,-1.007,4.8,-4.0,0.0,0.0213,-0.0154,-0.0002,472,552,611,533,0.00,0.01,2.61,0.15,0.2031,1,1,0,0.01,0.00,0.55,-0.05,0.00,0.00,0.15,208,30
6799,1.5,1.4,2.3,0.004,0.016,-1.019,4.8,-4.0,0.0,0.0191,-0.0176,-0.0002,473,544,610,540,0.00,0.01,2.61,0.15,0.2031,1,1,0,0.01,0.00,0.55,-0.05,0.00,0.00,0.15,208,30
6809,0.2,0.3,-3.1,0.001,0.009,-1.018,4.9,-4.0,0.0,0.0206,-0.0164,0.0003,472,550,613,532,0.00,0.01,2.61,0.15,0.2031,1,1,0,0.01,0.00,0.55,-0.05,0.00,0.00,0.16,208,30
6819,-1.9,-1.7,-1.0,0.030,0.006,-1.012,4.9,-4.0,0.0,0.0226,-0.0144,0.0000,472,557,612,527,0.00,0.01,2.61,0.15,0.2031,1,1,0,0.01,0.00,0.55,-0.05,0.00,0.00,0.16,208,30
6830,0.9,0.2,4.6,0.015,-0.002,-1.015,4.8,-4.0,0.0,0.0198,-0.0164,-0.0004,474,549,608,536,0.00,0.01,2.61,0.15,0.2031,1,1,0,0.01,0.00,0.55,-0.05,0.00,0.00,0.15,208,30
6840,1.7,1.2,-1.8,-0.004,0.002,-1.012,4.9,-4.0,0.0,0.0192,-0.0173,0.0002,473,545,612,537,0.00,0.01,2.61,0.15,0.2031,1,1,0,0.01,0.00,0.55,-0.05,0.00,0.00,0.15,208,30
6850,-0.7,-0.3,-4.0,0.011,0.023,-1.000,4.9,-4.0,0.0,0.0215,-0.0159,0.0004,472,554,613,529,0.00,0.01,2.61,0.15,0.2031,1,1,0,0.01,0.00,0.55,-0.05,0.00,0.00,0.15,208,30
6860,-0.1,-1.3,5.3,0.018,0.012,-1.014,4.9,-4.0,0.0,0.0209,-0.0148,-0.0005,473,554,609,532,0.00,0.01,2.61,0.15,0.2031,1,1,0,0.01,0.00,0.55,-0.05,0.00,0.00,0.15,208,30
6870,0.9,-0.1,1.7,0.010,0.011,-1.008,4.9,-4.0,0.0,0.0200,-0.0162,0.0000,472,549,611,535,0.00,0.01,2.61,0.15,0.2031,1,1,0,0.01,0.00,0.55,-0.05,0.00,0.00,0.15,208,30
6880,-1.5,-0.1,-6.7,0.018,-0.014,-1.002,4.9,-4.0,0.0,0.0223,-0.0161,0.0006,470,552,616,529,0.00,0.01,2.61,0.15,0.2031,1,1,0,0.01,0.00,0.55,-0.05,0.00,0.00,0.15,208,30
6890,-0.8,-0.4,2.1,0.026,0.006,-1.024,4.8,-4.0,0.0,0.0216,-0.0157,-0.0002,471,552,612,533,0.00,0.01,2.61,0.15,0.2031,1,1,0,0.01,0.00,0.55,-0.05,0.00,0.00,0.15,208,30
6900,1.7,1.1,4.5,0.006,0.022,-1.009,4.8,-4.0,0.0,0.0190,-0.0174,-0.0004,472,545,610,540,0.00,0.01,2.61,0.15,0.2031,1,1,0,0.01,0.00,0.55,-0.05,0.00,0.00,0.16,208,30
6910,0.5,0.5,-4.5,0.004,0.003,-1.027,4.9,-4.0,0.0,0.0202,-0.0167,0.0004,475,551,615,535,0.00,0.01,2.61,0.15,0.2043,1,1,0,0.01,0.00,0.55,-0.05,0.00,0.00,0.16,207,30
6920,-1.0,-1.7,-1.9,0.025,0.014,-1.013,4.9,-4.0,0.0,0.0218,-0.0143,0.0001,476,559,612,529,0.00,0.01,2.61,0.15,0.2043,1,1,0,0.01,0.00,0.55,-0.05,0.00,0.00,0.15,207,30
6930,0.2,-0.6,5.5,0.017,0.008,-1.012,4.8,-4.0,0.0,0.0206,-0.0156,-0.0005,474,552,612,538,0.00,0.01,2.61,0.15,0.2043,1,1,0,0.01,0.00,0.55,-0.05,0.00,0.00,0.15,207,30
6941,0.1,0.6,-0.8,0.007,-0.010,-1.007,4.9,-4.0,0.0,0.0207,-0.0169,0.0001,474,552,617,538,0.00,0.01,2.61,0.15,0.2050,1,1,0,0.01,0.00,0.55,-0.05,0.00,0.00,0.15,207,30
6951,-0.5,0.7,-4.8,0.014,0.003,-1.016,4.9,-4.0,0.0,0.0213,-0.0169,0.0004,474,553,618,536,0.00,0.01,2.61,0.15,0.2050,1,1,0,0.01,0.00,0.55,-0.05,0.00,0.00,0.16,207,30
6961,0.9,-0.7,3.9,0.016,0.017,-1.033,4.9,-4.0,0.0,0.0198,-0.0155,-0.0003,493,569,626,553,0.00,0.01,2.61,0.15,0.2129,1,1,0,0.01,0.00,0.55,-0.05,0.00,0.00,0.15,207,30
6971,1.4,0.5,2.8,0.017,0.012,-1.001,4.9,-4.0,0.0,0.0194,-0.0169,-0.0002,490,566,630,555,0.00,0.01,2.61,0.15,0.2129,1,1,0,0.01,0.00,0.55,-0.05,0.00,0.00,0.15,207,30
6981,-1.3,0.6,-4.2,0.009,-0.011,-1.014,4.9,-4.0,0.0,0.0222,-0.0169,0.0004,487,569,633,547,0.00,0.01,2.61,0.15,0.2123,1,1,0,0.01,0.00,0.55,-0.05,0.00,0.00,0.15,207,30
6991,-0.6,-1.0,-0.7,0.022,0.000,-1.015,4.8,-4.0,0.0,0.0214,-0.0152,0.0000,490,570,628,548,0.00,0.01,2.61,0.15,0.2123,1,1,0,0.01,0.00,0.55,-0.05,0.00,0.00,0.15,207,30
7001,1.8,0.1,4.2,0.013,0.006,-1.017,4.8,-4.0,0.0,0.0189,-0.0165,-0.0004,491,563,626,556,0.00,0.01,2.61,0.15,0.2123,1,1,0,0.01,0.00,0.55,-0.05,0.00,0.00,0.15,207,30
7011,0.4,1.9,-1.8,0.000,0.025,-1.004,4.9,-4.0,0.0,0.0205,-0.0181,0.0002,486,564,633,553,0.00,0.01,2.61,0.15,0.2123,1,1,0,0.01,0.00,0.55,-0.05,0.00,0.00,0.16,207,30
7021,-0.7,0.3,-2.1,0.003,-0.005,-1.030,4.8,-4.0,0.0,0.0216,-0.0166,0.0002,489,570,630,548,0.00,0.01,2.61,0.15,0.2123,1,1,0,0.01,0.00,0.55,-0.05,0.00,0.00,0.16,207,30
7031,1.6,-1.2,2.7,0.027,0.028,-1.006,4.8,-4.0,0.0,0.0189,-0.0147,-0.0002,495,568,622,551,0.00,0.01,2.61,0.15,0.2123,1,1,0,0.01,0.00,0.55,-0.05,0.00,0.00,0.16,207,30
7041,0.7,-0.3,1.0,0.012,0.003,-1.020,4.8,-4.0,0.0,0.0202,-0.0159,0.0000,491,569,629,552,0.00,0.01,2.61,0.15,0.2129,1,1,0,0.01,0.00,0.55,-0.05,0.00,0.00,0.15,207,30
7051,-2.3,0.6,-2.6,0.013,-0.025,-1.026,4.9,-4.0,0.0,0.0232,-0.0169,0.0002,485,572,637,547,0.00,0.01,2.61,0.15,0.2129,1,1,0,0.01,0.00,0.55,-0.05,0.00,0.00,0.15,207,30
7062,0.0,0.1,0.9,0.008,0.003,-1.020,4.8,-4.0,0.0,0.0203,-0.0160,-0.0001,492,568,628,553,0.00,0.01,2.61,0.15,0.2129,1,1,0,0.01,0.00,0.55,-0.05,0.00,0.00,0.15,207,30
7072,2.6,-1.3,1.3,0.025,0.031,-0.999,4.8,-4.0,0.0,0.0181,-0.0149,-0.0001,497,566,623,555,0.00,0.01,2.61,0.15,0.2129,1,1,0,0.01,0.00,0.55,-0.05,0.00,0.00,0.16,207,30
7082,0.8,0.0,-1.6,0.015,0.012,-1.035,4.9,-4.0,0.0,0.0200,-0.0163,0.0001,490,567,631,552,0.00,0.01,2.61,0.15,0.2129,1,1,0,0.01,0.00,0.55,-0.05,0.00,0.00,0.16,207,30
7102,-1.0,-1.3,1.7,0.009,-0.007,-1.008,4.8,-4.0,0.0,0.0219,-0.0149,-0.0001,492,573,628,548,0.00,0.01,2.61,0.15,0.2129,1,1,0,0.01,0.00,0.55,-0.05,0.00,0.00,0.15,207,30
7112,1.4,-3.2,-0.5,0.033,0.017,-1.015,4.8,-4.0,0.0,0.0194,-0.0131,0.0000,498,571,623,549,0.00,0.01,2.61,0.15,0.2129,1,1,0,0.01,0.00,0.55,-0.05,0.00,0.00,0.15,207,30
7122,-0.2,1.6,-1.3,0.021,-0.004,-1.005,4.9,-4.0,0.0,0.0212,-0.0187,0.0001,487,567,640,559,0.00,0.01,2.61,0.15,0.2147,1,1,0,0.01,0.00,0.55,-0.05,0.00,0.00,0.15,207,30
7132,-0.7,2.2,0.9,-0.005,0.001,-1.006,4.8,-4.0,0.0,0.0216,-0.0185,0.0000,488,570,639,558,0.00,0.01,2.61,0.15,0.2147,1,1,0,0.01,0.00,0.55,-0.05,0.00,0.00,0.15,207,30
7142,0.9,-1.6,0.3,0.006,0.014,-1.030,4.8,-4.0,0.0,0.0197,-0.0144,0.0000,499,574,628,554,0.00,0.01,2.61,0.15,0.2147,1,1,0,0.01,0.00,0.55,-0.05,0.00,0.00,0.15,207,30
7152,1.1,-2.1,-0.2,0.029,0.027,-1.023,4.9,-4.0,0.0,0.0200,-0.0143,0.0000,496,574,631,553,0.00,0.01,2.61,0.15,0.2147,1,1,0,0.01,0.00,0.55,-0.05,0.00,0.00,0.15,207,30
7162,-1.8,1.4,0.7,0.011,-0.001,-0.992,4.9,-4.0,0.0,0.0228,-0.0178,0.0000,485,573,642,555,0.00,0.01,2.61,0.15,0.2147,1,1,0,0.01,0.00,0.55,-0.05,0.00,0.00,0.15,207,30
7173,-1.6,0.4,0.0,-0.003,-0.013,-1.027,4.8,-4.0,0.0,0.0224,-0.0167,0.0000,491,575,636,552,0.00,0.01,2.61,0.15,0.2147,1,1,0,0.01,0.00,0.55,-0.05,0.00,0.00,0.16,207,30
7183,0.5,-1.6,-1.0,0.021,0.006,-1.017,4.8,-4.0,0.0,0.0204,-0.0147,0.0001,498,573,630,554,0.00,0.01,2.61,0.15,0.2147,1,1,0,0.01,0.00,0.55,-0.05,0.00,0.00,0.15,207,30
7193,2.0,-0.1,1.1,0.018,0.024,-1.002,4.8,-4.0,0.0,0.0188,-0.0162,-0.0001,497,569,630,559,0.00,0.01,2.61,0.15,0.2147,1,1,0,0.01,0.00,0.55,-0.05,0.00,0.00,0.15,207,30
7203,0.2,2.5,-0.4,-0.001,0.016,-1.005,4.9,-4.0,0.0,0.0211,-0.0187,0.0000,488,569,639,558,0.00,0.01,2.61,0.15,0.2147,1,1,0,0.01,0.00,0.55,-0.05,0.00,0.00,0.15,207,30
7213,-0.6,0.8,-0.7,-0.003,0.001,-1.046,4.9,-4.0,0.0,0.0216,-0.0172,0.0000,492,574,635,553,0.00,0.01,2.61,0.15,0.2147,1,1,0,0.01,0.00,0.55,-0.05,0.00,0.00,0.15,207,30
7223,-0.6,-2.4,-0.6,0.028,-0.005,-0.999,4.9,-4.0,0.0,0.0216,-0.0138,0.0000,500,581,632,551,0.00,0.01,2.61,0.15,0.2159,1,1,0,0.01,0.00,0.55,-0.05,0.00,0.00,0.15,207,30
7233,0.2,-0.5,2.3,0.024,0.009,-1.008,4.9,-4.0,0.0,0.0206,-0.0159,-0.0002,496,575,635,558,0.00,0.01,2.61,0.15,0.2159,1,1,0,0.01,0.00,0.55,-0.05,0.00,0.00,0.15,207,30
7243,-0.4,1.7,-0.2,0.010,0.008,-1.022,4.9,-4.0,0.0,0.0214,-0.0181,0.0000,491,571,641,560,0.00,0.01,2.61,0.15,0.2159,1,1,0,0.01,0.00,0.55,-0.05,0.00,0.00,0.15,207,30
7253,0.2,0.7,-2.2,0.000,0.004,-1.024,4.9,-4.0,0.0,0.0207,-0.0171,0.0002,496,573,636,558,0.00,0.01,2.61,0.15,0.2159,1,1,0,0.01,0.00,0.55,-0.05,0.00,0.00,0.15,207,30
7263,1.5,-1.4,0.9,0.027,0.009,-1.013,4.9,-4.0,0.0,0.0193,-0.0146,0.0000,504,577,632,559,0.00,0.01,2.61,0.15,0.2172,1,1,0,0.01,0.00,0.55,-0.05,0.00,0.00,0.15,207,30
7273,0.7,0.4,1.3,0.012,0.033,-1.027,4.9,-4.0,0.0,0.0203,-0.0168,-0.0001,497,575,639,562,0.00,0.01,2.61,0.15,0.2172,1,1,0,0.01,0.00,0.55,-0.05,0.00,0.00,0.16,207,30
7283,-0.9,0.5,-1.2,0.000,0.008,-1.020,4.9,-4.0,0.0,0.0223,-0.0168,0.0001,508,592,656,571,0.00,0.01,2.61,0.15,0.2245,1,1,0,0.01,0.00,0.55,-0.05,0.00,0.00,0.16,208,30
7294,-1.4,-1.0,-1.3,0.017,-0.005,-1.007,4.9,-4.0,0.0,0.0223,-0.0150,0.0001,512,596,652,568,0.00,0.01,2.61,0.15,0.2245,1,1,0,0.01,0.00,0.55,-0.05,0.00,0.00,0.15,208,30
7304,0.2,-1.6,1.2,0.027,-0.007,-1.013,4.9,-4.0,0.0,0.0206,-0.0148,-0.0001,515,593,649,572,0.00,0.01,2.61,0.15,0.2245,1,1,0,0.01,0.00,0.55,-0.05,0.00,0.00,0.15,208,30
7314,1.1,0.0,-0.1,0.016,0.018,-1.026,4.9,-4.0,0.0,0.0198,-0.0166,0.0000,513,588,651,576,0.00,0.01,2.61,0.15,0.2245,1,1,0,0.01,0.00,0.55,-0.05,0.00,0.00,0.16,208,30
7324,1.1,1.1,-0.3,-0.008,0.004,-1.013,4.9,-4.0,0.0,0.0199,-0.0175,0.0000,528,602,667,592,0.00,0.01,2.61,0.15,0.2324,1,1,0,0.01,0.00,0.55,-0.05,0.00,0.00,0.16,208,30
7334,0.8,-0.1,0.0,0.009,0.015,-1.012,4.8,-4.0,0.0,0.0201,-0.0162,0.0000,528,605,666,590,0.00,0.01,2.61,0.15,0.2324,1,1,0,0.01,0.00,0.55,-0.05,0.00,0.00,0.15,208,30
7344,0.4,-0.5,0.0,0.007,0.021,-1.035,4.9,-4.0,0.0,0.0206,-0.0154,0.0000,529,607,665,587,0.00,0.01,2.61,0.15,0.2324,1,1,0,0.01,0.00,0.55,-0.05,0.00,0.00,0.15,208,30
7354,-0.5,-0.3,-0.6,0.024,0.003,-1.003,4.9,-4.0,0.0,0.0216,-0.0160,0.0000,526,609,669,585,0.00,0.01,2.61,0.15,0.2324,1,1,0,0.01,0.00,0.55,-0.05,0.00,0.00,0.15,208,30
7364,-1.9,0.1,1.5,0.016,-0.007,-1.016,4.9,-4.0,0.0,0.0230,-0.0165,-0.0001,522,610,672,585,0.00,0.01,2.61,0.15,0.2324,1,1,0,0.01,0.00,0.55,-0.05,0.00,0.00,0.15,208,30
7374,-2.0,-0.2,-0.1,0.012,-0.022,-1.034,4.8,-4.0,0.0,0.0227,-0.0160,0.0000,526,609,669,585,0.00,0.01,2.61,0.15,0.2324,1,1,0,0.01,0.00,0.55,-0.05,0.00,0.00,0.15,208,30
