t_ms,gx,gy,gz,ax,ay,az,sp_x,sp_y,sp_z,pid_x,pid_y,pid_z,m1,m2,m3,m4,roll,pitch,yaw,alt_m,thr,mode,armed,sat,sp_roll,sp_pitch,v_fwd,v_right,vt_fwd,vt_right,range_m,flow_q,est_flags
#
# chuyen bay moi, moc boot_ms = 7934
#   nhip Hz = 100
10,0.0,0.0,0.0,0.019,-0.014,-1.008,-1.1,-5.3,0.0,-0.0012,-0.0053,0.0000,339,335,354,359,0.01,0.01,2.86,0.15,0.1000,1,1,0,0.01,0.00,-0.01,0.00,0.00,0.00,0.15,106,30
20,0.0,0.0,0.0,0.018,-0.013,-1.007,-1.1,-5.3,0.0,-0.0012,-0.0054,0.0000,339,334,355,359,0.01,0.01,2.86,0.15,0.1000,1,1,0,0.01,0.00,-0.01,0.00,0.00,0.00,0.15,103,30
30,0.0,0.0,0.0,0.017,-0.014,-1.008,-1.1,-5.3,0.0,-0.0012,-0.0054,0.0000,339,334,355,359,0.01,0.01,2.86,0.15,0.1000,1,1,0,0.01,0.00,-0.01,0.00,0.00,0.00,0.15,105,30
40,0.0,0.0,0.0,0.017,-0.014,-1.008,-1.1,-5.3,0.0,-0.0011,-0.0054,0.0000,339,334,355,359,0.01,0.01,2.86,0.15,0.1000,1,1,0,0.01,0.00,-0.01,0.00,0.00,0.00,0.15,107,30
50,0.0,0.0,-0.1,0.019,-0.015,-1.007,-1.1,-5.3,0.0,-0.0011,-0.0054,0.0001,339,334,355,359,0.01,0.01,2.86,0.15,0.1000,1,1,0,0.01,0.00,-0.01,0.00,0.00,0.00,0.15,109,30
60,0.0,0.0,-0.1,0.019,-0.014,-1.007,-1.1,-5.3,0.0,-0.0011,-0.0054,0.0001,339,334,355,359,0.01,0.01,2.86,0.15,0.1000,1,1,0,0.01,0.00,-0.01,0.00,0.00,0.00,0.15,106,30
70,0.0,0.0,-0.1,0.018,-0.014,-1.008,-1.1,-5.3,0.0,-0.0012,-0.0054,0.0001,339,334,355,359,0.01,0.01,2.86,0.15,0.1000,1,1,0,0.01,0.00,-0.01,0.00,0.00,0.00,0.15,108,30
80,0.0,0.0,0.0,0.019,-0.015,-1.008,-1.1,-5.3,0.0,-0.0011,-0.0054,0.0000,339,334,355,359,0.01,0.01,2.86,0.15,0.1000,1,1,0,0.01,0.00,-0.01,0.00,0.00,0.00,0.15,105,30
90,0.0,0.0,0.0,0.018,-0.014,-1.008,-1.1,-5.3,0.0,-0.0011,-0.0054,0.0000,339,334,355,359,0.01,0.01,2.86,0.15,0.1000,1,1,0,0.01,0.00,-0.01,0.00,0.00,0.00,0.15,107,30
100,-0.1,0.0,0.0,0.018,-0.013,-1.007,-1.1,-5.3,0.0,-0.0010,-0.0054,0.0000,339,334,355,359,0.01,0.01,2.86,0.15,0.1000,1,1,0,0.01,0.00,-0.01,0.00,0.00,0.00,0.15,104,30
110,0.4,0.2,-1.7,0.021,-0.012,-1.009,-1.1,-5.3,0.0,-0.0015,-0.0056,0.0017,342,330,358,358,0.01,0.01,2.86,0.15,0.1000,1,1,0,0.01,0.00,-0.01,0.00,0.00,0.00,0.15,107,30
121,-0.5,1.4,1.4,0.027,0.017,-1.000,-1.1,-5.4,0.0,-0.0005,-0.0074,-0.0010,332,334,358,364,0.01,0.01,2.86,0.15,0.1000,1,1,0,0.01,0.00,-0.01,0.00,0.00,0.00,0.15,104,30
131,0.7,0.8,7.0,0.013,-0.001,-0.993,-1.1,-5.4,0.0,-0.0019,-0.0063,-0.0070,326,343,343,376,0.01,0.01,2.86,0.15,0.1000,1,1,0,0.01,0.00,-0.01,0.00,0.00,0.00,0.15,107,30
141,-0.6,0.3,-3.1,0.010,-0.016,-0.996,-1.1,-5.3,0.0,-0.0002,-0.0056,0.0003,337,335,358,357,0.01,0.01,2.86,0.15,0.1000,1,1,0,0.01,0.00,-0.01,0.00,0.00,0.00,0.15,104,30
151,-0.2,0.8,6.8,0.007,-0.008,-1.014,-1.1,-5.3,0.0,-0.0009,-0.0063,-0.0068,326,344,346,372,0.01,0.01,2.86,0.15,0.1000,1,1,0,0.01,0.00,-0.01,0.00,0.00,0.00,0.15,107,30
161,-0.5,1.0,-16.9,-0.005,-0.069,-1.046,-1.1,-5.4,0.0,-0.0003,-0.0068,0.0184,370,298,394,326,0.01,0.01,2.86,0.15,0.1000,1,1,0,0.01,0.00,-0.01,0.00,0.00,0.00,0.15,104,30
171,0.6,-0.8,-7.6,0.034,-0.013,-1.016,-1.1,-5.3,0.0,-0.0017,-0.0046,0.0076,352,323,366,347,0.01,0.01,2.86,0.15,0.1000,1,1,0,0.01,0.00,-0.01,0.00,0.00,0.00,0.15,107,30
181,-1.0,0.0,12.1,0.020,-0.061,-1.027,-1.1,-5.4,0.0,-0.0006,-0.0055,-0.0121,315,358,333,382,0.01,0.01,2.86,0.15,0.1000,1,1,0,0.01,0.00,-0.01,0.00,0.00,0.00,0.15,104,30
191,-1.7,2.4,3.4,0.048,-0.026,-1.053,-1.1,-5.4,0.0,0.0006,-0.0079,-0.0034,324,335,361,367,0.01,0.01,2.86,0.15,0.1000,1,1,0,0.01,0.00,-0.01,0.00,0.00,0.00,0.15,106,30
201,-1.3,-1.8,-4.3,0.050,-0.047,-1.010,-1.1,-5.4,0.0,0.0000,-0.0055,0.0037,343,329,364,350,0.01,0.01,2.86,0.15,0.1000,1,1,0,0.01,0.00,-0.01,0.00,0.00,0.00,0.14,103,30
212,-3.5,2.5,10.3,0.015,-0.107,-1.070,-1.1,-5.3,0.0,0.0024,-0.0080,-0.0103,307,356,345,379,0.01,0.01,2.86,0.15,0.1000,1,1,0,0.01,0.00,-0.01,0.00,0.00,0.00,0.14,106,30
222,1.5,-3.2,13.6,0.008,0.030,-1.031,-1.1,-5.3,0.0,-0.0026,-0.0025,-0.0133,321,360,325,382,0.01,0.01,2.86,0.15,0.1000,1,1,0,0.01,0.00,-0.01,0.00,0.00,0.00,0.15,103,30
232,-1.1,0.7,-8.4,-0.005,-0.069,-0.997,-1.1,-5.3,0.0,0.0000,-0.0062,0.0084,353,319,373,343,0.01,0.01,2.86,0.15,0.1000,1,1,0,0.01,0.00,-0.01,0.00,0.00,0.00,0.15,105,30
242,-1.4,0.3,1.2,0.047,-0.084,-1.053,-1.1,-5.4,0.0,0.0002,-0.0065,-0.0017,327,337,357,366,0.01,0.01,2.86,0.15,0.1000,1,1,0,0.01,0.00,-0.01,0.00,0.00,0.00,0.15,106,30
252,-1.0,-2.9,-0.7,0.054,-0.008,-1.021,-1.1,-5.4,0.0,0.0000,-0.0026,0.0007,343,334,361,349,0.01,0.01,2.86,0.15,0.1000,1,1,0,0.01,0.00,0.00,0.00,0.00,0.00,0.15,108,30
262,1.1,-1.1,-17.5,-0.017,0.013,-1.014,-1.1,-5.3,0.0,-0.0023,-0.0042,0.0175,375,303,383,326,0.01,0.01,2.86,0.15,0.1000,1,1,0,0.01,0.00,-0.01,0.00,0.00,0.00,0.15,105,30
272,0.7,4.8,8.1,0.014,-0.023,-1.011,-1.1,-5.3,0.0,-0.0026,-0.0102,-0.0091,315,340,344,388,0.01,0.01,2.86,0.15,0.1000,1,1,0,0.01,0.00,-0.01,0.00,0.00,0.00,0.15,107,30
282,-1.8,2.3,-1.8,0.006,-0.049,-1.009,-1.1,-5.5,0.0,0.0006,-0.0080,0.0018,337,325,371,354,0.01,0.01,2.86,0.15,0.1000,1,1,0,0.01,0.00,-0.01,0.00,0.00,0.00,0.15,109,30
292,0.6,-3.9,-8.8,0.027,0.015,-1.027,-1.1,-5.3,0.0,-0.0018,-0.0011,0.0084,363,328,360,337,0.01,0.01,2.86,0.15,0.1000,1,1,0,0.01,0.00,-0.01,0.00,0.00,0.00,0.15,110,30
303,-1.0,1.3,17.5,0.017,-0.079,-1.021,-1.1,-5.3,0.0,0.0000,-0.0068,-0.0175,302,372,321,393,0.01,0.01,2.86,0.15,0.1000,1,1,0,0.01,0.00,-0.01,0.00,0.00,0.00,0.15,107,30
313,0.1,-3.9,2.7,0.024,0.012,-1.019,-1.2,-5.3,0.0,-0.0012,-0.0017,-0.0020,344,342,348,354,0.01,0.01,2.86,0.15,0.1000,1,1,0,0.01,0.00,0.00,0.00,0.00,0.00,0.15,109,30
323,0.3,-0.2,-7.3,0.023,-0.026,-1.003,-1.1,-5.3,0.0,-0.0017,-0.0050,0.0068,352,324,363,349,0.01,0.01,2.86,0.15,0.1000,1,1,0,0.01,0.00,-0.01,0.00,0.00,0.00,0.15,105,30
333,-2.1,1.6,13.6,0.024,-0.066,-0.975,-1.1,-5.4,0.0,0.0010,-0.0073,-0.0136,302,361,338,386,0.01,0.01,2.86,0.15,0.1000,1,1,0,0.01,0.00,-0.01,0.00,0.00,0.00,0.15,101,30
343,3.4,-6.2,-3.7,0.000,0.088,-1.002,-1.2,-5.4,0.0,-0.0046,0.0006,0.0037,364,331,347,345,0.01,0.01,2.86,0.15,0.1000,1,1,0,0.01,0.00,-0.01,0.00,0.00,0.00,0.15,103,30
353,-0.6,0.0,-13.4,0.032,-0.042,-1.048,-1.1,-5.2,0.0,-0.0009,-0.0046,0.0130,367,315,372,333,0.01,0.01,2.86,0.15,0.1000,1,1,0,0.01,0.00,-0.01,0.00,0.00,0.00,0.15,105,30
363,0.9,2.1,6.1,-0.029,-0.030,-1.017,-1.1,-5.3,0.0,-0.0021,-0.0076,-0.0061,328,345,341,373,0.01,0.01,2.86,0.15,0.1000,1,1,0,0.01,0.00,0.00,0.00,0.00,0.00,0.15,102,30
373,0.0,4.9,-2.7,-0.102,0.057,-1.083,-1.2,-5.3,0.0,-0.0011,-0.0066,0.0050,346,323,367,352,0.01,0.01,2.86,0.15,0.1000,1,1,0,0.01,0.00,-0.01,0.00,0.00,0.00,0.15,105,30
383,5.6,-0.8,-10.3,0.063,0.016,-1.018,-1.1,-5.3,0.0,-0.0068,-0.0047,0.0103,372,310,356,350,0.01,0.01,2.86,0.15,0.1000,1,1,0,0.01,0.00,-0.01,0.00,0.00,0.00,0.15,109,30
394,-2.1,1.7,10.7,0.001,-0.102,-1.114,-1.2,-5.4,0.0,0.0000,-0.0062,-0.0117,316,359,330,383,0.01,0.01,2.86,0.15,0.1000,1,1,0,0.01,0.00,-0.01,0.00,0.00,0.00,0.15,106,30
404,-4.3,-2.5,-1.1,-0.004,0.005,-1.018,-1.1,-5.2,0.0,0.0031,-0.0029,0.0011,346,349,356,337,0.01,0.01,2.86,0.15,0.1000,1,1,0,0.01,0.00,-0.01,0.00,0.00,0.00,0.15,108,30
414,0.7,-1.7,-10.4,0.022,-0.089,-1.001,-1.1,-5.3,0.0,-0.0020,-0.0028,0.0104,368,321,364,334,0.01,0.01,2.86,0.15,0.1000,1,1,0,0.01,0.00,-0.01,0.00,0.00,0.00,0.15,110,30
424,-2.6,-3.3,15.7,0.042,0.008,-1.131,-1.1,-5.3,0.0,0.0012,-0.0007,-0.0158,323,386,310,369,0.01,0.01,2.86,0.15,0.1000,1,1,0,0.01,0.00,-0.01,0.00,0.00,0.00,0.15,106,30
434,-1.2,2.0,0.9,-0.035,-0.089,-1.016,-1.1,-5.2,0.0,-0.0003,-0.0021,0.0008,345,341,352,350,0.01,0.01,2.86,0.15,0.1000,1,1,0,0.01,0.00,-0.01,0.00,0.00,0.00,0.15,108,30
444,0.0,6.6,-11.6,0.015,-0.046,-1.015,-1.2,-5.3,0.0,-0.0008,-0.0105,0.0104,349,313,379,347,0.01,0.01,2.86,0.15,0.1000,1,1,0,0.01,0.00,-0.01,0.00,0.00,0.00,0.15,110,30
454,2.1,-0.1,11.4,0.077,0.141,-1.043,-1.1,-5.2,0.0,-0.0021,-0.0038,-0.0115,322,357,328,380,0.01,0.01,2.86,0.15,0.1000,1,1,0,0.01,0.00,-0.01,0.00,0.00,0.00,0.15,106,30
464,-0.6,-1.1,-8.0,-0.070,-0.137,-1.044,-1.2,-5.3,0.0,-0.0011,-0.0030,0.0086,369,324,362,332,0.01,0.01,2.86,0.15,0.1000,1,1,0,0.01,0.00,0.00,0.00,0.00,0.00,0.15,103,30
474,-1.7,7.7,-10.0,-0.092,-0.093,-1.066,-1.1,-5.3,0.0,0.0017,-0.0100,0.0088,343,322,381,342,0.01,0.01,2.86,0.15,0.1000,1,1,0,0.01,0.00,-0.01,0.00,0.00,0.00,0.15,106,30
484,3.0,0.4,15.2,0.194,0.216,-0.986,-1.1,-5.4,0.0,-0.0042,-0.0061,-0.0152,309,357,329,393,0.01,0.01,2.86,0.15,0.1000,1,1,0,0.01,0.00,-0.01,0.00,0.00,0.00,0.15,105,30
495,4.1,-8.3,-9.1,-0.012,0.031,-1.069,-1.2,-5.2,0.0,-0.0055,0.0051,0.0094,404,344,330,309,0.01,0.01,2.86,0.15,0.1000,1,1,0,0.01,0.00,0.00,0.00,0.00,0.00,0.15,105,30
505,-2.8,28.7,-8.4,-0.164,-0.262,-0.928,-1.1,-5.3,0.0,0.0013,-0.0332,0.0077,302,281,416,389,0.01,0.01,2.86,0.15,0.1000,1,1,0,0.01,0.00,-0.01,0.00,0.00,0.00,0.15,107,30
515,3.3,2.2,16.1,0.193,0.166,-1.135,-1.2,-5.6,0.0,-0.0047,-0.0080,-0.0161,302,339,341,405,0.01,0.01,2.86,0.15,0.1000,1,1,0,0.01,0.00,-0.01,0.00,0.00,0.00,0.15,109,30
525,1.3,-9.4,-6.4,0.034,0.026,-1.014,-1.2,-5.3,0.0,-0.0048,0.0044,0.0081,384,326,345,333,0.01,0.01,2.86,0.15,0.1000,1,1,0,0.01,0.00,0.00,0.00,0.00,0.00,0.15,105,30
535,-5.0,3.0,-2.8,-0.093,-0.300,-0.923,-1.1,-5.4,0.0,0.0035,-0.0082,0.0019,328,338,366,355,0.01,0.01,2.86,0.15,0.1000,1,1,0,0.01,0.00,-0.01,0.00,0.00,0.00,0.15,107,30
545,-0.8,-4.2,16.7,0.098,0.202,-0.989,-1.2,-5.3,0.0,0.0025,-0.0021,-0.0155,306,377,334,371,0.01,0.01,2.86,0.15,0.1000,1,1,0,0.01,0.00,-0.01,0.00,0.00,0.00,0.15,109,30
555,6.2,-6.1,-13.8,0.026,0.032,-1.030,-1.2,-5.3,0.0,-0.0081,0.0014,0.0139,397,312,349,330,0.01,0.01,2.86,0.15,0.1000,1,1,0,0.01,0.00,0.00,0.00,0.00,0.00,0.15,111,30
565,-4.8,6.0,-2.5,-0.040,-0.250,-1.004,-1.2,-5.4,0.0,0.0035,-0.0118,0.0025,316,325,377,370,0.01,0.01,2.86,0.15,0.1000,1,1,0,0.01,0.00,-0.01,0.00,0.00,0.00,0.15,108,30
575,0.3,-5.2,16.2,0.137,0.171,-0.918,-1.2,-5.4,0.0,-0.0016,-0.0005,-0.0161,309,357,336,385,0.01,0.01,2.86,0.15,0.1000,1,1,0,0.01,0.00,-0.01,0.00,0.00,0.00,0.15,110,30
585,4.5,-7.7,-19.8,-0.028,-0.042,-0.987,-1.2,-5.3,0.0,-0.0060,0.0030,0.0197,404,311,361,311,0.01,0.01,2.86,0.15,0.1000,1,1,0,0.01,0.00,0.00,0.00,0.00,0.00,0.15,107,30
595,-4.8,15.6,3.2,-0.079,-0.168,-1.007,-1.2,-5.4,0.0,0.0035,-0.0214,-0.0032,292,321,379,395,0.01,0.01,2.86,0.15,0.1000,1,1,0,0.01,0.00,-0.01,0.00,0.00,0.00,0.15,109,30
606,2.1,-9.5,11.9,0.169,0.184,-1.141,-1.2,-5.5,0.0,-0.0018,-0.0012,-0.0094,325,350,340,373,0.01,0.01,2.86,0.15,0.1000,1,1,0,0.01,0.00,-0.01,0.00,0.00,0.00,0.15,105,30
616,1.4,-3.0,-18.4,-0.077,-0.044,-1.042,-1.2,-5.2,0.0,-0.0026,-0.0012,0.0183,387,311,374,315,0.01,0.01,2.86,0.15,0.1000,1,1,0,0.01,0.00,0.00,0.00,0.00,0.00,0.15,107,30
626,-0.1,9.8,11.7,-0.022,-0.058,-0.965,-1.2,-5.4,0.0,-0.0012,-0.0156,-0.0117,294,342,347,404,0.01,0.01,2.86,0.15,0.1000,1,1,0,0.01,0.00,-0.01,0.00,0.00,0.00,0.16,104,30
636,1.8,-4.4,7.3,0.155,0.137,-0.971,-1.3,-5.4,0.0,-0.0029,-0.0024,-0.0040,344,339,344,361,0.01,0.01,2.86,0.15,0.1000,1,1,0,0.01,0.00,0.00,0.00,0.00,0.00,0.15,107,30
646,0.2,1.6,-16.6,-0.055,-0.106,-0.997,-1.3,-5.3,0.0,-0.0016,-0.0073,0.0166,373,308,373,333,0.01,0.01,2.86,0.15,0.1000,1,1,0,0.01,0.00,-0.01,0.00,0.00,0.00,0.15,108,30
656,-4.2,6.3,14.9,-0.048,-0.127,-1.104,-1.2,-5.4,0.0,0.0029,-0.0121,-0.0149,281,364,350,392,0.01,0.01,2.86,0.15,0.1000,1,1,0,0.01,0.00,-0.01,0.00,0.00,0.00,0.15,110,30
666,3.6,-4.1,3.6,0.068,0.214,-0.978,-1.3,-5.3,0.0,-0.0034,-0.0012,-0.0001,351,338,342,356,0.01,0.01,2.86,0.15,0.1000,1,1,0,0.01,0.00,-0.01,0.00,0.00,0.00,0.15,106,30
676,6.2,1.8,-19.4,0.058,-0.019,-0.891,-1.2,-5.4,0.0,-0.0075,-0.0076,0.0194,377,289,375,346,0.01,0.01,2.86,0.15,0.1000,1,1,0,0.01,0.00,-0.01,0.00,0.00,0.00,0.15,109,30
686,-3.9,6.1,16.4,-0.062,-0.229,-0.966,-1.3,-5.4,0.0,-0.0001,-0.0158,-0.0161,287,347,346,408,0.01,0.01,2.86,0.15,0.1000,1,1,0,0.01,0.00,-0.01,0.00,0.00,0.00,0.16,106,30
696,-2.7,-6.2,-1.7,0.085,0.180,-1.071,-1.2,-5.4,0.0,0.0018,-0.0011,0.0026,342,335,370,341,0.01,0.01,2.86,0.15,0.1000,1,1,0,0.01,0.00,-0.01,0.00,0.00,0.00,0.15,108,30
706,5.0,-6.8,-17.5,-0.009,-0.102,-0.944,-1.3,-5.3,0.0,-0.0064,0.0011,0.0175,393,316,350,329,0.01,0.01,2.86,0.15,0.1000,1,1,0,0.01,0.00,0.00,0.00,0.00,0.00,0.15,105,30
716,-7.6,2.1,22.0,-0.006,-0.074,-1.055,-1.3,-5.3,0.0,0.0058,-0.0066,-0.0222,281,387,329,390,0.01,0.01,2.86,0.15,0.1000,1,1,0,0.01,0.00,-0.01,0.00,0.00,0.00,0.15,108,30
727,4.3,-6.6,-10.3,0.113,0.101,-0.982,-1.2,-5.4,0.0,-0.0056,0.0008,0.0103,379,310,370,329,0.01,0.01,2.86,0.15,0.1000,1,1,0,0.01,0.00,0.00,0.00,0.00,0.00,0.15,105,30
737,2.8,-1.6,-10.2,-0.026,-0.094,-0.890,-1.4,-5.3,0.0,-0.0043,-0.0041,0.0102,366,316,358,347,0.01,0.01,2.86,0.15,0.1000,1,1,0,0.01,0.00,-0.01,0.00,0.00,0.00,0.15,108,30
747,-3.9,2.9,25.4,-0.030,-0.013,-1.080,-1.1,-5.4,0.0,0.0026,-0.0086,-0.0250,281,382,322,403,0.01,0.01,2.86,0.15,0.1000,1,1,0,0.01,0.00,-0.01,0.00,0.00,0.00,0.15,109,30
757,3.7,-5.8,-15.0,0.090,0.057,-0.949,-1.4,-5.2,0.0,-0.0052,0.0001,0.0150,398,313,360,317,0.01,0.01,2.86,0.15,0.1000,1,1,0,0.01,0.00,-0.01,0.00,0.00,0.00,0.15,111,30
767,-2.7,0.3,-5.4,0.057,-0.037,-1.057,-1.2,-5.3,0.0,0.0014,-0.0061,0.0054,342,333,362,351,0.01,0.01,2.86,0.15,0.1000,1,1,0,0.01,0.00,0.00,0.00,0.00,0.00,0.16,108,30
777,-3.3,5.9,20.4,-0.065,-0.165,-1.066,-1.3,-5.4,0.0,0.0023,-0.0116,-0.0197,286,366,339,397,0.01,0.01,2.86,0.15,0.1000,1,1,0,0.01,0.00,-0.01,0.00,0.00,0.00,0.15,110,30
787,1.9,-0.3,-21.5,0.090,0.208,-1.014,-1.3,-5.4,0.0,-0.0034,-0.0055,0.0215,382,287,397,321,0.01,0.01,2.86,0.15,0.1000,1,1,0,0.01,0.00,-0.01,0.00,0.00,0.00,0.15,107,30
797,4.9,-0.6,2.0,-0.013,-0.095,-1.000,-1.2,-5.3,0.0,-0.0075,-0.0038,-0.0057,343,336,329,379,0.01,0.01,2.86,0.15,0.1000,1,1,0,0.01,0.00,-0.01,0.00,0.00,0.00,0.15,109,30
807,-7.1,0.8,19.0,-0.039,-0.078,-1.064,-1.4,-5.3,0.0,0.0056,-0.0067,-0.0190,293,376,335,383,0.01,0.01,2.86,0.15,0.1000,1,1,0,0.01,0.00,-0.01,0.00,0.00,0.00,0.15,106,30
818,2.6,-3.4,-23.3,0.047,0.056,-0.992,-1.1,-5.3,0.0,-0.0031,-0.0017,0.0238,394,294,391,309,0.01,0.01,2.86,0.15,0.1000,1,1,0,0.01,0.00,-0.01,0.00,0.00,0.00,0.15,108,30
828,3.8,-1.5,6.4,0.039,-0.033,-1.020,-1.4,-5.3,0.0,-0.0054,-0.0042,-0.0064,336,346,323,382,0.01,0.01,2.86,0.15,0.1000,1,1,0,0.01,0.00,-0.01,0.00,0.00,0.00,0.15,105,30
838,-4.4,12.0,15.9,-0.014,-0.010,-0.969,-1.2,-5.4,0.0,0.0029,-0.0178,-0.0146,288,342,360,397,0.01,0.01,2.86,0.15,0.1000,1,1,0,0.01,0.00,-0.01,0.00,0.00,0.00,0.15,102,30
848,4.8,5.3,-23.0,0.072,-0.060,-0.935,-1.3,-5.4,0.0,-0.0063,-0.0112,0.0231,493,384,518,456,0.01,0.01,2.86,0.15,0.1613,1,1,0,0.01,0.00,-0.01,0.00,0.00,0.00,0.15,104,30
858,-3.7,-0.4,15.9,0.026,0.120,-0.996,-1.2,-5.3,0.0,0.0026,-0.0059,-0.0171,404,490,443,504,0.01,0.01,2.87,0.15,0.1599,1,1,0,0.01,0.00,-0.01,0.00,0.00,0.00,0.15,106,30
868,3.1,3.2,5.4,-0.058,-0.085,-1.052,-1.2,-5.4,0.0,-0.0045,-0.0092,-0.0054,537,515,559,569,0.01,0.01,2.86,0.15,0.2049,1,1,0,0.01,0.00,-0.01,0.00,0.00,0.00,0.15,103,30
878,-0.1,-8.7,-31.4,0.086,0.014,-1.003,-1.3,-5.4,0.0,-0.0026,0.0009,0.0281,600,484,587,490,0.01,0.01,2.86,0.15,0.2023,1,1,0,0.01,0.00,-0.01,0.00,0.00,0.00,0.15,106,30
888,-4.4,8.8,39.8,0.019,-0.063,-1.049,-1.2,-5.3,0.0,0.0030,-0.0148,-0.0398,467,637,526,667,0.01,0.01,2.87,0.15,0.2204,1,1,0,0.01,0.00,-0.01,0.00,0.00,0.00,0.15,108,30
898,7.0,-1.1,-27.2,-0.053,0.023,-0.971,-1.3,-5.3,0.0,-0.0106,-0.0017,0.0324,652,489,618,536,0.01,0.01,2.86,0.15,0.2199,1,1,0,0.01,0.00,-0.01,0.00,0.00,0.00,0.15,108,30
909,5.2,-11.1,-7.2,0.092,0.209,-0.988,-1.2,-5.4,0.0,-0.0066,0.0052,0.0072,574,571,565,580,0.01,0.01,2.87,0.15,0.2194,1,1,0,0.01,0.00,0.00,0.00,0.00,0.00,0.15,108,30
919,-2.6,5.6,43.3,0.044,-0.030,-1.133,-1.2,-5.6,0.0,0.0024,-0.0184,-0.0389,461,606,554,678,0.01,0.01,2.86,0.15,0.2205,1,1,0,0.01,0.00,-0.01,0.00,0.00,0.00,0.15,110,30
929,-8.0,15.5,-53.2,-0.009,-0.230,-1.055,-1.2,-5.5,0.0,0.0060,-0.0222,0.0532,769,586,871,655,0.01,0.01,2.86,0.15,0.2977,1,1,0,0.01,0.00,-0.01,0.00,0.00,0.00,0.15,106,30
939,-12.5,13.6,41.2,0.146,-0.132,-0.982,-1.2,-5.5,0.0,0.0112,-0.0197,-0.0412,567,782,683,834,0.01,0.01,2.87,0.15,0.2956,1,1,0,0.01,0.00,-0.01,0.00,0.00,0.00,0.15,103,30
949,-3.9,28.5,6.0,-0.149,-0.194,-0.853,-1.4,-5.3,0.0,-0.0002,-0.0247,0.0019,805,765,857,839,0.01,0.01,2.86,0.15,0.3486,1,1,0,0.01,0.00,-0.01,0.00,0.00,0.00,0.15,105,30
959,7.9,31.7,-44.1,-0.287,0.092,-0.812,-1.4,-5.0,0.0,-0.0094,-0.0374,0.0441,862,715,888,786,0.01,0.01,2.87,0.15,0.3467,1,1,0,0.01,0.00,-0.01,0.00,0.00,0.00,0.15,107,30
969,-4.5,-15.5,60.5,0.023,0.184,-1.035,-1.3,-4.8,0.0,0.0035,0.0283,-0.0648,758,1025,624,862,0.01,0.01,2.87,0.15,0.3489,1,1,0,0.01,0.00,0.00,0.00,0.00,0.00,0.15,104,30
979,-13.6,-15.9,-28.3,0.206,-0.155,-1.004,-1.3,-5.4,0.0,0.0128,0.0100,0.0313,881,784,908,694,0.01,0.01,2.86,0.15,0.3486,1,1,0,0.01,0.00,-0.01,-0.01,0.00,0.00,0.15,101,30
989,-18.8,-1.1,-11.9,0.251,-0.448,-1.029,-1.6,-5.7,0.0,0.0136,-0.0087,0.0102,780,771,872,860,0.01,0.01,2.87,0.15,0.3508,1,1,0,0.01,0.00,-0.01,0.00,0.00,0.00,0.15,104,30
999,8.2,13.1,34.4,0.034,-0.211,-1.103,-1.7,-5.7,0.0,-0.0101,-0.0194,-0.0344,758,789,804,960,0.01,0.01,2.87,0.15,0.3545,1,1,0,0.01,0.00,-0.01,0.00,0.00,0.00,0.15,101,30
1009,37.1,21.7,-46.1,-0.125,0.178,-0.937,-1.5,-5.7,0.0,-0.0389,-0.0280,0.0461,920,626,873,875,0.01,0.02,2.87,0.15,0.3522,1,1,0,0.01,0.00,-0.01,0.00,0.00,0.00,0.15,103,30
1020,21.6,21.3,39.9,-0.290,0.304,-0.860,-1.2,-5.3,0.0,-0.0217,-0.0231,-0.0419,741,826,740,975,0.01,0.01,2.87,0.15,0.3506,1,1,0,0.01,0.00,-0.01,0.00,0.00,0.00,0.15,106,30
1030,7.0,-20.8,-16.6,-0.037,0.215,-0.932,-1.0,-5.1,0.0,-0.0083,0.0151,0.0166,894,828,861,724,0.01,0.01,2.86,0.15,0.3540,1,1,0,0.01,0.00,0.00,0.00,0.00,0.00,0.15,109,30
1040,-16.7,-19.0,-4.3,0.100,-0.067,-0.762,-1.0,-5.3,0.0,0.0155,0.0132,0.0042,796,886,830,756,0.01,0.01,2.87,0.15,0.3488,1,1,0,0.01,0.00,-0.01,0.00,0.00,0.00,0.15,105,30
1050,-19.6,-17.6,24.1,0.006,-0.095,-0.929,-1.3,-5.4,0.0,0.0159,0.0103,-0.0204,774,894,797,808,0.01,0.01,2.87,0.15,0.3495,1,1,0,0.01,0.00,-0.01,0.00,0.00,0.00,0.15,107,30
1060,-7.9,-24.7,-36.9,0.086,-0.132,-1.161,-1.4,-5.4,0.0,0.0063,0.0188,0.0369,901,787,865,735,0.01,0.01,2.87,0.15,0.3515,1,1,0,0.01,0.00,-0.01,0.00,0.00,0.00,0.15,108,30
1070,-4.8,-16.5,31.7,0.129,-0.070,-1.024,-1.4,-5.4,0.0,0.0047,0.0053,-0.0330,749,896,767,874,0.01,0.01,2.87,0.15,0.3513,1,1,0,0.01,0.00,-0.01,0.00,0.00,0.00,0.15,102,30
1080,-3.7,-15.1,-18.3,0.181,-0.030,-0.962,-1.3,-5.6,0.0,0.0023,0.0090,0.0183,829,773,911,781,0.01,0.01,2.87,0.15,0.3523,1,1,0,0.01,0.00,-0.01,0.00,0.00,0.00,0.15,105,30
1090,-11.1,1.7,2.3,0.137,-0.055,-1.022,-1.3,-5.7,0.0,0.0099,-0.0111,-0.0043,742,818,860,875,0.01,0.01,2.87,0.15,0.3525,1,1,0,0.01,0.00,-0.01,0.00,0.00,0.00,0.15,102,30
1100,-4.5,5.0,19.3,-0.045,0.045,-0.939,-1.3,-5.7,0.0,0.0025,-0.0135,-0.0181,756,810,837,884,0.01,0.01,2.87,0.15,0.3514,1,1,0,0.01,0.00,-0.01,0.00,0.00,0.00,0.15,104,30
1110,1.2,-2.0,-23.0,0.035,0.116,-1.090,-1.3,-5.6,0.0,-0.0028,-0.0042,0.0230,843,749,875,814,0.01,0.01,2.87,0.15,0.3506,1,1,0,0.01,0.00,-0.01,0.00,0.00,0.00,0.15,102,30
1121,-3.4,-1.0,30.8,0.045,0.046,-1.125,-1.4,-5.5,0.0,0.0015,-0.0070,-0.0318,744,872,781,893,0.01,0.01,2.87,0.15,0.3517,1,1,0,0.01,0.00,-0.01,0.00,0.00,0.00,0.15,105,30
1131,-4.2,-6.9,-9.2,0.137,-0.101,-1.200,-1.4,-5.6,0.0,0.0026,0.0006,0.0092,842,803,869,788,0.01,0.01,2.87,0.15,0.3532,1,1,0,0.01,0.00,-0.01,0.00,0.00,0.00,0.15,103,30
1141,-12.4,-7.8,-4.7,0.149,-0.122,-1.223,-1.4,-5.7,0.0,0.0126,0.0008,0.0010,799,857,849,802,0.01,0.01,2.87,0.15,0.3539,1,1,0,0.01,0.00,-0.01,0.00,0.00,0.00,0.15,106,30
1151,-15.5,-20.6,26.3,0.081,-0.173,-1.317,-1.4,-5.7,0.0,0.0140,0.0143,-0.0263,782,903,793,841,0.01,0.01,2.87,0.15,0.3556,1,1,0,0.01,0.00,-0.01,0.00,0.00,0.00,0.15,105,30
1161,-8.2,-26.5,-23.7,0.144,-0.201,-1.079,-1.4,-5.7,0.0,0.0057,0.0181,0.0236,879,787,866,789,0.01,0.01,2.87,0.15,0.3559,1,1,0,0.01,0.00,-0.01,0.00,0.00,0.00,0.15,107,30
1171,-2.6,-27.5,22.8,0.170,-0.176,-0.978,-1.4,-5.8,0.0,0.0010,0.0212,-0.0228,760,856,792,904,0.01,0.01,2.87,0.15,0.3545,1,1,0,0.01,0.00,-0.01,0.00,0.00,0.00,0.15,104,30
1181,6.1,-1.5,-10.8,0.190,-0.089,-0.932,-1.6,-5.9,0.0,-0.0078,-0.0049,0.0108,805,710,918,872,0.01,0.01,2.87,0.15,0.3537,1,1,0,0.01,0.00,-0.01,0.00,0.00,0.00,0.15,106,30
1191,-1.5,28.1,-10.1,0.086,-0.114,-0.969,-1.6,-6.1,0.0,-0.0018,-0.0469,0.0066,741,711,921,919,0.01,0.02,2.87,0.15,0.3521,1,1,0,0.01,0.00,-0.01,0.00,0.00,0.00,0.15,103,30
1201,-3.0,33.5,23.3,-0.060,-0.103,-1.117,-1.7,-6.0,0.0,0.0011,-0.0403,-0.0233,730,769,846,940,0.01,0.02,2.87,0.15,0.3512,1,1,0,0.01,0.00,-0.01,0.00,0.00,0.00,0.15,106,30
1211,10.1,11.3,-26.9,-0.109,0.026,-1.049,-1.7,-5.9,0.0,-0.0120,-0.0180,0.0269,885,718,861,828,0.01,0.02,2.87,0.15,0.3520,1,1,0,0.01,0.00,-0.01,0.00,0.00,0.00,0.15,103,30
1222,10.8,4.7,18.1,-0.222,0.146,-0.938,-1.5,-5.6,0.0,-0.0148,0.0006,-0.0205,828,852,741,884,0.01,0.02,2.87,0.15,0.3538,1,1,0,0.01,0.00,0.00,0.00,0.00,0.00,0.15,106,30
1232,6.6,4.4,-8.1,-0.159,0.013,-1.041,-1.5,-5.4,0.0,-0.0083,-0.0106,0.0081,901,807,813,822,0.01,0.01,2.87,0.15,0.3587,1,1,0,0.01,0.00,0.00,0.00,0.00,0.00,0.15,103,30
1242,10.4,1.6,-5.1,-0.048,0.069,-1.131,-1.4,-5.5,0.0,-0.0115,-0.0061,0.0041,851,821,818,849,0.01,0.01,2.87,0.15,0.3582,1,1,0,0.01,0.00,-0.01,0.00,0.00,0.00,0.15,106,30
1252,0.4,-3.3,19.5,-0.064,0.017,-1.207,-1.3,-5.5,0.0,-0.0020,-0.0028,-0.0195,800,859,801,861,0.01,0.01,2.87,0.15,0.3558,1,1,0,0.01,0.00,-0.01,0.00,0.00,0.00,0.15,103,30
1262,2.8,-10.2,-17.0,-0.018,0.004,-1.281,-1.4,-5.5,0.0,-0.0043,0.0054,0.0170,879,802,835,786,0.01,0.01,2.87,0.15,0.3533,1,1,0,0.01,0.00,-0.01,0.00,0.00,0.00,0.15,106,30
1272,-6.8,-1.8,10.1,0.084,-0.027,-1.109,-1.3,-5.6,0.0,0.0052,-0.0045,-0.0101,781,859,822,836,0.01,0.01,2.87,0.15,0.3529,1,1,0,0.01,0.00,0.00,0.00,0.00,0.00,0.15,102,30
1282,-10.2,-11.3,5.3,0.070,0.000,-0.791,-1.4,-5.8,0.0,0.0105,-0.0002,-0.0013,799,827,867,805,0.01,0.01,2.87,0.15,0.3528,1,1,0,0.01,0.00,0.00,0.00,0.00,0.00,0.15,105,30
1292,-10.4,-13.5,-10.5,0.151,-0.063,-0.883,-1.5,-5.9,0.0,0.0087,0.0069,0.0105,809,809,877,822,0.01,0.02,2.87,0.15,0.3553,1,1,0,0.01,0.00,0.00,0.00,0.00,0.00,0.15,102,30
1302,-14.4,-8.6,14.0,0.210,-0.054,-1.161,-1.6,-6.0,0.0,0.0126,0.0020,-0.0140,749,835,872,883,0.01,0.02,2.87,0.15,0.3584,1,1,0,0.01,0.00,-0.01,0.00,0.00,0.00,0.15,103,30
1312,-8.9,-4.3,-19.0,0.148,-0.040,-0.851,-1.6,-5.9,0.0,0.0045,-0.0138,0.0206,820,741,925,841,0.01,0.02,2.87,0.15,0.3566,1,1,0,0.01,0.00,-0.01,0.00,0.00,0.00,0.15,100,30
1323,-6.8,18.3,4.0,0.045,0.035,-0.818,-1.6,-5.7,0.0,0.0050,-0.0249,-0.0040,761,792,866,892,0.01,0.02,2.87,0.15,0.3545,1,1,0,0.01,0.00,-0.01,0.00,0.00,0.00,0.15,103,30
1333,3.8,30.0,-1.3,-0.051,0.106,-1.056,-1.7,-5.6,0.0,-0.0079,-0.0330,0.0026,814,763,862,878,0.01,0.02,2.87,0.15,0.3553,1,1,0,0.01,0.00,-0.01,0.00,0.00,0.00,0.16,100,30
1343,14.6,23.5,-14.4,-0.007,0.098,-1.109,-1.8,-5.7,0.0,-0.0166,-0.0301,0.0144,853,742,840,881,0.01,0.02,2.87,0.15,0.3553,1,1,0,0.01,0.00,-0.01,0.00,0.00,0.00,0.15,103,30
1353,14.7,10.0,9.9,-0.071,0.051,-1.132,-1.9,-5.7,0.0,-0.0205,-0.0145,-0.0095,829,776,788,910,0.01,0.02,2.87,0.15,0.3535,1,1,0,0.01,0.00,-0.01,0.00,0.00,0.00,0.15,105,30
1363,17.2,4.1,-10.6,-0.022,0.053,-1.170,-1.8,-5.8,0.0,-0.0198,-0.0073,0.0105,887,766,807,852,0.01,0.02,2.87,0.15,0.3547,1,1,0,0.01,0.00,-0.01,0.00,0.00,0.00,0.15,107,30
1373,14.3,7.1,2.9,-0.075,0.097,-1.026,-1.8,-5.7,0.0,-0.0160,-0.0111,-0.0036,849,819,779,874,0.01,0.02,2.87,0.15,0.3558,1,1,0,0.01,0.00,-0.01,0.00,0.00,0.00,0.15,104,30
1383,12.8,-2.7,6.1,-0.092,0.084,-0.908,-1.8,-5.7,0.0,-0.0154,-0.0007,-0.0058,861,820,790,861,0.01,0.02,2.87,0.15,0.3573,1,1,0,0.01,0.00,-0.01,0.00,0.00,0.00,0.15,107,30
1393,8.2,-18.6,-1.4,-0.045,-0.003,-0.844,-1.7,-5.7,0.0,-0.0102,0.0121,0.0014,876,828,794,839,0.01,0.01,2.87,0.15,0.3579,1,1,0,0.01,0.00,0.00,0.00,0.00,0.00,0.15,104,30
1403,7.9,-14.8,13.1,0.029,0.024,-0.838,-1.7,-5.7,0.0,-0.0103,0.0072,-0.0134,818,835,795,876,0.01,0.01,2.87,0.15,0.3579,1,1,0,0.01,0.00,0.00,0.00,0.00,0.00,0.16,101,30
1413,5.8,-15.0,4.3,0.047,0.011,-0.771,-1.7,-5.7,0.0,-0.0077,0.0086,-0.0043,810,791,848,858,0.01,0.01,2.87,0.15,0.3556,1,1,0,0.01,0.00,-0.01,0.00,0.00,0.00,0.16,103,30
1424,2.2,-5.9,4.7,0.126,0.050,-0.587,-1.5,-5.7,0.0,-0.0019,-0.0077,-0.0041,784,803,856,859,0.01,0.01,2.87,0.15,0.3527,1,1,0,0.01,0.00,-0.01,0.00,0.00,0.00,0.16,105,30
1434,-2.8,3.3,10.0,0.079,0.002,-0.695,-1.5,-5.7,0.0,0.0010,-0.0099,-0.0100,777,809,856,857,0.01,0.02,2.87,0.15,0.3502,1,1,0,0.01,0.00,-0.01,0.00,0.00,0.00,0.16,101,30
1444,-1.0,13.2,-4.6,0.084,-0.038,-1.000,-1.6,-5.8,0.0,-0.0012,-0.0194,0.0062,818,778,869,849,0.01,0.02,2.87,0.15,0.3517,1,1,0,0.01,0.00,-0.01,0.00,0.00,0.00,0.16,98,30
1454,-6.1,20.5,5.8,0.023,-0.079,-1.109,-1.6,-5.7,0.0,0.0042,-0.0271,-0.0058,816,809,831,866,0.01,0.02,2.87,0.15,0.3533,1,1,0,0.01,0.00,-0.01,0.00,0.00,0.00,0.16,101,30
1464,-2.0,9.8,2.9,-0.041,0.002,-1.311,-1.7,-5.6,0.0,-0.0026,-0.0081,-0.0011,877,843,840,870,0.01,0.02,2.87,0.15,0.3670,1,1,0,0.01,0.00,-0.01,0.00,0.00,0.00,0.16,103,30
1474,6.7,1.7,-7.8,-0.008,0.014,-1.413,-1.7,-5.5,0.0,-0.0099,-0.0049,0.0075,915,837,819,866,0.01,0.02,2.87,0.15,0.3699,1,1,0,0.01,0.00,-0.01,0.00,0.00,0.00,0.15,100,30
1484,13.0,-10.3,10.5,-0.008,0.110,-1.266,-1.6,-5.5,0.0,-0.0149,0.0040,-0.0106,1008,977,916,1015,0.01,0.01,2.87,0.15,0.4351,1,1,0,0.01,0.00,-0.01,0.00,0.00,0.00,0.16,103,30
1494,21.4,-22.3,-7.2,0.045,0.114,-1.129,-1.5,-5.5,0.0,-0.0245,0.0165,0.0079,1046,929,935,982,0.01,0.01,2.87,0.15,0.4326,1,1,0,0.01,0.00,-0.01,0.00,0.00,0.00,0.16,106,30
1504,18.6,-15.0,11.1,0.032,0.156,-1.112,-1.4,-5.6,0.0,-0.0195,0.0076,-0.0112,1042,1032,1029,1113,0.01,0.01,2.87,0.15,0.4750,1,1,0,0.01,0.00,-0.01,0.00,0.00,0.00,0.15,103,30
1515,15.4,0.9,-2.0,0.010,0.098,-1.139,-1.6,-5.8,0.0,-0.0172,-0.0075,0.0020,1061,993,1057,1088,0.01,0.02,2.87,0.15,0.4726,1,1,0,0.01,0.00,-0.01,0.00,0.00,0.00,0.15,105,30
1525,1.4,3.1,7.9,0.026,0.110,-1.405,-1.6,-6.0,0.0,-0.0032,-0.0102,-0.0089,1023,1061,1075,1135,0.01,0.02,2.87,0.15,0.4845,1,1,0,0.01,0.00,-0.01,0.00,0.00,0.00,0.15,107,30
1535,-1.4,-6.1,0.9,0.140,0.205,-1.249,-1.4,-6.3,0.0,-0.0002,-0.0009,-0.0009,1058,1057,1058,1063,0.01,0.02,2.87,0.15,0.4760,1,1,0,0.01,0.00,-0.01,0.00,0.00,0.00,0.15,103,30
1545,1.9,-11.0,2.0,0.202,0.286,-1.334,-1.0,-6.7,0.0,0.0003,0.0064,-0.0056,1026,1084,1030,1048,0.01,0.02,2.87,0.15,0.4690,1,1,0,0.01,0.00,-0.01,0.00,0.00,0.00,0.15,100,30
1555,0.0,7.9,2.3,0.006,-0.062,-1.212,-0.8,-7.2,0.0,-0.0011,-0.0160,-0.0023,1016,1024,1026,1051,0.01,0.02,2.87,0.15,0.4597,1,1,0,0.01,0.00,-0.01,0.00,0.00,0.00,0.15,103,30
1565,-8.8,24.5,-10.5,0.008,-0.346,-1.228,-0.4,-7.8,0.0,0.0082,-0.0334,0.0105,965,975,1072,1041,0.01,0.02,2.87,0.15,0.4520,1,1,0,0.01,0.00,-0.02,0.00,0.00,0.00,0.15,103,30
1575,-20.2,32.4,-2.6,-0.130,-0.369,-1.053,0.0,-8.3,0.0,0.0183,-0.0409,0.0027,938,953,1067,1049,0.01,0.02,2.87,0.15,0.4459,1,1,0,0.01,0.00,-0.02,0.00,0.00,0.00,0.15,104,30
1585,-17.1,23.7,-8.2,0.005,-0.142,-1.139,0.3,-8.8,0.0,0.0174,-0.0335,0.0082,921,921,1105,1012,0.00,0.03,2.87,0.15,0.4417,1,1,0,0.01,0.00,-0.02,0.00,0.00,0.00,0.16,101,30
1595,-21.0,1.2,17.8,0.090,0.077,-1.386,0.6,-8.8,0.0,0.0218,-0.0110,-0.0158,899,1021,1023,995,0.00,0.03,2.87,0.16,0.4366,1,1,0,0.01,0.00,-0.02,0.00,0.00,0.00,0.16,103,30
1605,-9.3,-10.7,1.9,0.195,0.308,-1.228,0.8,-8.8,0.0,0.0100,0.0009,-0.0019,1061,1120,1119,1044,0.00,0.03,2.87,0.16,0.4898,1,1,0,0.01,0.00,-0.01,0.00,0.00,0.00,0.16,100,30
1616,5.1,-8.3,12.3,0.101,0.184,-1.096,0.7,-8.6,0.0,-0.0031,0.0047,-0.0126,1073,1119,1033,1076,0.00,0.03,2.87,0.16,0.4838,1,1,0,0.01,0.00,-0.01,0.00,0.00,0.00,0.16,103,30
1626,11.5,0.3,5.8,-0.100,-0.118,-1.435,0.5,-8.6,0.0,-0.0104,-0.0073,-0.0058,1080,1068,1029,1082,0.00,0.03,2.88,0.16,0.4794,1,1,0,0.01,0.00,-0.02,0.00,0.00,0.00,0.16,106,30
1636,16.4,29.1,-0.3,-0.176,-0.182,-1.316,0.0,-8.9,0.0,-0.0178,-0.0320,-0.0005,1050,995,1047,1121,0.01,0.03,2.88,0.16,0.4735,1,1,0,0.01,0.00,-0.02,0.00,0.00,0.00,0.16,108,30
1646,19.2,24.8,8.6,0.000,0.018,-1.307,-0.2,-9.2,0.0,-0.0192,-0.0371,-0.0086,1069,1047,1165,1247,0.01,0.03,2.88,0.17,0.5147,1,1,0,0.01,0.00,-0.02,0.00,0.00,0.00,0.17,104,30
1656,6.5,-17.0,3.0,0.184,0.201,-1.295,-0.7,-9.1,0.0,-0.0074,0.0069,-0.0031,1112,1066,1119,1192,0.01,0.03,2.88,0.17,0.5087,1,1,0,0.01,0.00,-0.02,0.00,0.00,0.00,0.17,106,30
1666,3.4,-32.8,2.8,0.205,0.152,-1.305,-0.9,-8.9,0.0,-0.0034,0.0226,-0.0056,1150,1170,1077,1123,0.01,0.03,2.88,0.17,0.5139,1,1,0,0.01,0.00,-0.02,0.00,0.00,0.00,0.17,103,30
1676,-0.1,4.9,-6.3,-0.115,-0.147,-1.118,-1.2,-8.9,0.0,-0.0020,-0.0110,0.0062,1132,1099,1108,1116,0.01,0.03,2.88,0.17,0.5064,1,1,0,0.01,0.00,-0.03,0.00,0.00,0.00,0.17,105,30
1686,0.1,24.2,-10.4,-0.133,-0.326,-1.526,-1.3,-9.3,0.0,-0.0017,-0.0348,0.0103,1070,1019,1194,1110,0.01,0.03,2.88,0.18,0.4960,1,1,0,0.01,0.00,-0.03,0.00,0.00,0.00,0.17,101,30
1696,-8.6,22.3,32.8,-0.050,-0.161,-1.341,-1.4,-9.6,0.0,0.0073,-0.0363,-0.0277,957,1055,1127,1182,0.01,0.03,2.88,0.18,0.4878,1,1,0,0.01,0.00,-0.03,0.00,0.00,0.00,0.18,103,30
1706,-6.4,12.8,9.7,0.110,0.130,-1.610,-1.2,-9.9,0.0,0.0050,-0.0238,-0.0098,958,1041,1118,1137,0.01,0.03,2.88,0.18,0.4758,1,1,0,0.01,0.00,-0.04,0.00,0.00,0.00,0.18,99,30
1716,-2.3,4.8,23.1,0.146,0.056,-1.106,-1.0,-10.1,0.0,0.0015,-0.0172,-0.0283,948,1075,1006,1146,0.01,0.03,2.89,0.19,0.4672,1,1,0,0.01,0.00,-0.04,0.00,0.00,0.00,0.18,102,30
1727,-5.3,3.3,-29.0,0.000,-0.074,-1.308,-0.7,-10.4,0.0,0.0044,-0.0149,0.0289,1049,982,1071,1032,0.01,0.03,2.88,0.19,0.4635,1,1,0,0.01,0.00,-0.04,0.00,0.00,0.00,0.19,98,30
1737,-18.6,15.7,-14.9,-0.067,-0.316,-1.241,-0.4,-10.9,0.0,0.0126,-0.0268,0.0170,1002,959,1104,1025,0.01,0.03,2.89,0.20,0.4587,1,1,0,0.01,0.00,-0.04,0.00,0.00,0.00,0.19,100,30
1747,-23.7,-0.9,20.4,-0.024,-0.046,-1.382,0.1,-11.3,0.0,0.0237,-0.0115,-0.0205,935,1043,1125,973,0.01,0.03,2.89,0.20,0.4560,1,1,0,0.01,0.00,-0.05,0.00,0.00,0.00,0.20,99,30
1757,-8.1,-2.3,11.9,0.143,0.071,-1.142,0.1,-11.7,0.0,0.0117,-0.0104,-0.0123,934,1013,1054,1034,0.01,0.04,2.89,0.21,0.4498,1,1,0,0.01,0.00,0.00,0.15,0.00,0.00,0.20,95,31
1767,6.2,4.0,26.5,0.206,0.258,-1.273,-6.0,-12.3,0.0,-0.0095,-0.0178,-0.0274,911,1023,989,1093,0.00,0.04,2.89,0.21,0.4462,3,1,0,-0.01,0.00,0.00,0.20,0.00,0.00,0.20,97,63
1777,12.7,13.7,-11.6,0.042,0.144,-1.197,-7.7,-12.6,0.0,-0.0207,-0.0277,0.0115,984,914,1024,1053,0.00,0.04,2.89,0.22,0.4419,3,1,0,-0.01,0.00,0.00,0.16,0.00,0.00,0.21,95,63
1787,17.3,-1.5,14.3,0.031,-0.165,-1.310,-6.8,-12.7,0.0,-0.0279,-0.0172,-0.0144,978,920,947,1119,0.01,0.04,2.89,0.22,0.4398,3,1,0,-0.01,0.00,0.01,0.14,0.00,0.00,0.22,98,63
1797,8.1,-6.0,9.0,-0.170,-0.131,-1.038,-5.5,-11.7,0.0,-0.0145,-0.0061,-0.0081,980,955,972,1023,0.01,0.04,2.89,0.23,0.4354,3,1,0,0.00,0.00,0.00,0.16,0.00,0.00,0.22,96,63
1807,-8.0,0.8,0.0,-0.006,-0.197,-1.160,-6.7,-11.8,0.0,-0.0018,-0.0084,-0.0063,963,985,947,1030,0.01,0.04,2.90,0.24,0.4370,3,1,0,-0.01,0.00,-0.03,0.14,0.00,0.00,0.22,98,63
1817,-4.2,1.7,2.7,0.132,0.032,-1.217,-5.6,-13.1,0.0,-0.0015,-0.0164,-0.0034,945,967,993,1024,0.00,0.04,2.90,0.24,0.4371,3,1,0,-0.01,0.00,-0.06,0.18,0.00,0.00,0.23,99,63
1828,-3.7,-8.9,-18.0,0.148,0.124,-0.882,-7.3,-14.1,0.0,-0.0038,-0.0064,0.0178,998,913,1035,978,0.00,0.03,2.90,0.25,0.4353,3,1,0,-0.01,0.00,-0.05,0.16,0.00,0.00,0.23,102,63
1838,-10.4,-18.5,17.6,0.268,0.117,-1.091,-6.1,-12.6,0.0,0.0032,-0.0025,-0.0149,939,978,976,1028,0.00,0.03,2.90,0.25,0.4366,3,1,0,-0.01,0.00,-0.04,0.16,0.00,0.00,0.24,100,63
1848,-5.1,-38.1,9.2,0.088,0.220,-1.137,-5.1,-11.1,0.0,-0.0001,0.0258,-0.0094,1001,1011,966,958,0.00,0.03,2.90,0.26,0.4379,3,1,0,-0.01,0.00,-0.01,0.14,0.00,0.00,0.25,103,63
1858,-11.6,-17.0,14.1,-0.033,-0.147,-1.075,-4.5,-9.2,0.0,0.0024,0.0148,-0.0170,986,1052,907,980,0.00,0.03,2.90,0.27,0.4361,3,1,0,0.00,0.00,0.00,0.13,0.00,0.00,0.25,102,63
1868,-15.6,11.5,20.0,-0.120,-0.319,-1.203,-3.2,-9.6,0.0,0.0127,-0.0202,-0.0199,1046,1155,1079,1109,0.00,0.03,2.90,0.27,0.4982,3,1,0,0.00,0.00,-0.01,0.10,0.00,0.00,0.26,105,63
1878,-2.8,16.7,-7.9,-0.192,-0.195,-1.078,-1.9,-11.0,0.0,0.0006,-0.0292,0.0077,1037,1041,1181,1118,0.00,0.03,2.91,0.28,0.4961,3,1,0,0.00,0.00,-0.05,0.08,0.00,0.00,0.27,103,63
1888,4.2,11.1,42.3,-0.063,0.003,-1.163,-1.4,-12.2,0.0,-0.0051,-0.0285,-0.0412,962,1094,1066,1218,0.00,0.03,2.91,0.29,0.4910,3,1,0,0.00,-0.01,-0.08,0.07,0.00,0.00,0.27,98,63
1898,0.3,-6.0,-7.2,0.088,0.185,-1.231,-0.6,-12.6,0.0,-0.0020,-0.0089,0.0068,1078,1030,1104,1105,0.00,0.02,2.91,0.29,0.4887,3,1,0,0.00,-0.01,-0.09,0.05,0.00,0.00,0.27,96,63
1908,8.3,-17.2,27.8,0.213,0.226,-1.067,0.7,-12.4,0.0,-0.0078,0.0035,-0.0281,990,1132,994,1152,0.00,0.02,2.91,0.30,0.4795,3,1,0,0.00,-0.01,-0.09,0.01,0.00,0.00,0.28,94,63
1918,5.9,-9.3,-11.1,0.028,-0.022,-1.269,0.5,-11.4,0.0,-0.0070,-0.0024,0.0113,1104,1018,1057,1059,0.00,0.02,2.91,0.30,0.4770,3,1,0,0.00,-0.01,-0.07,0.01,0.00,0.00,0.28,97,63
1928,7.6,9.9,-15.6,-0.117,-0.285,-1.100,1.2,-11.7,0.0,-0.0066,-0.0231,0.0153,1059,978,1088,1068,0.00,0.03,2.92,0.31,0.4710,3,1,0,0.01,-0.01,-0.07,0.00,0.00,0.00,0.29,101,63
1939,-3.7,22.3,38.7,-0.074,-0.290,-1.199,1.5,-11.8,0.0,0.0004,-0.0362,-0.0319,930,1024,1054,1161,0.00,0.03,2.92,0.32,0.4682,3,1,0,0.01,0.00,-0.06,-0.02,0.00,0.00,0.30,98,63
1949,-18.4,-2.6,-7.3,-0.037,0.035,-1.318,2.5,-12.6,0.0,0.0208,-0.0113,0.0071,973,1039,1132,997,0.00,0.03,2.92,0.33,0.4644,3,1,0,0.01,-0.01,-0.07,-0.04,0.00,0.00,0.31,100,63
1959,7.1,9.4,65.4,0.172,0.246,-1.190,1.6,-13.1,0.0,-0.0057,-0.0240,-0.0657,856,1129,943,1181,0.00,0.03,2.92,0.33,0.4602,3,1,0,0.01,-0.01,-0.09,-0.02,0.00,0.00,0.32,101,63
1969,23.5,-9.8,-10.8,0.095,0.375,-1.146,0.3,-13.1,0.0,-0.0216,-0.0048,0.0066,1057,972,1004,1061,0.00,0.03,2.92,0.34,0.4582,3,1,0,0.01,-0.01,-0.08,0.00,0.00,0.00,0.33,101,63
1979,21.9,2.3,17.4,-0.058,-0.086,-0.882,-1.2,-13.3,0.0,-0.0234,-0.0171,-0.0177,1004,998,938,1117,0.01,0.03,2.93,0.35,0.4533,3,1,0,0.00,-0.01,-0.09,0.02,0.00,0.00,0.34,99,63
1989,13.2,18.2,-8.7,-0.085,-0.357,-1.230,-2.8,-13.1,0.0,-0.0180,-0.0329,0.0100,1038,888,1056,1087,0.01,0.03,2.93,0.36,0.4549,3,1,0,0.00,-0.01,-0.08,0.04,0.00,0.00,0.35,102,63
1999,3.2,-6.8,17.9,-0.094,-0.027,-1.177,-4.1,-13.3,0.0,-0.0076,-0.0100,-0.0187,961,1006,986,1090,0.01,0.03,2.93,0.36,0.4514,3,1,0,0.00,-0.01,-0.09,0.06,0.00,0.00,0.36,105,63
2009,-0.8,-9.9,19.2,0.114,0.006,-1.118,-4.7,-12.9,0.0,-0.0041,-0.0043,-0.0196,972,995,982,1062,0.01,0.03,2.93,0.37,0.4472,3,1,0,0.00,-0.01,-0.09,0.07,0.00,0.00,0.37,101,63
2019,-12.8,0.0,2.1,0.025,-0.193,-1.072,-4.2,-12.2,0.0,0.0082,-0.0096,-0.0045,960,1008,1027,1013,0.01,0.03,2.94,0.38,0.4468,3,1,0,0.00,-0.01,-0.08,0.05,0.00,0.00,0.38,104,63
2029,-9.2,5.9,31.4,0.074,-0.032,-0.923,-3.2,-12.2,0.0,0.0060,-0.0180,-0.0306,905,1038,988,1066,0.01,0.03,2.94,0.39,0.4452,3,1,0,0.00,-0.01,-0.08,0.03,0.00,0.00,0.38,104,63
2039,-11.9,-10.3,-2.1,0.179,0.249,-1.336,-2.9,-12.0,0.0,0.0087,-0.0031,0.0017,962,998,1035,1004,0.01,0.02,2.94,0.40,0.4456,3,1,0,0.00,-0.01,-0.08,0.03,0.00,0.00,0.39,100,63
2050,1.5,-24.5,46.0,0.134,0.375,-1.178,-3.5,-11.6,0.0,0.0014,0.0123,-0.0442,934,1106,892,1054,0.01,0.02,2.94,0.41,0.4439,3,1,0,0.00,-0.01,-0.09,0.05,0.00,0.00,0.40,97,63
2060,6.6,-8.1,-5.9,0.006,-0.008,-1.057,-4.3,-10.9,0.0,-0.0112,-0.0042,0.0055,1019,978,971,993,0.01,0.02,2.94,0.42,0.4406,3,1,0,0.00,-0.01,-0.08,0.06,0.00,0.00,0.41,100,63
2070,3.4,19.1,33.4,-0.184,-0.274,-1.055,-4.2,-10.4,0.0,-0.0080,-0.0311,-0.0339,883,998,957,1123,0.01,0.02,2.95,0.43,0.4407,3,1,0,0.00,-0.01,-0.07,0.06,0.00,0.00,0.42,97,63
2080,7.9,18.3,-8.3,-0.216,-0.236,-0.984,-3.3,-9.9,0.0,-0.0144,-0.0343,0.0087,968,881,1044,1065,0.01,0.02,2.95,0.43,0.4402,3,1,0,0.00,0.00,-0.06,0.04,0.00,0.00,0.43,100,63
2090,-5.8,-3.8,17.3,0.144,-0.091,-1.107,-2.2,-9.8,0.0,0.0034,-0.0074,-0.0178,912,992,989,1065,0.01,0.02,2.95,0.44,0.4400,3,1,0,0.00,0.00,-0.06,0.02,0.00,0.00,0.43,103,63
2100,-4.8,-26.8,14.5,0.067,0.223,-1.166,-0.5,-9.6,0.0,0.0024,0.0131,-0.0114,987,1039,946,980,0.01,0.02,2.95,0.45,0.4394,3,1,0,0.01,-0.01,-0.06,-0.01,0.00,0.00,0.45,106,63
2110,-12.9,-18.3,15.6,0.035,-0.043,-0.946,-0.7,-10.2,0.0,0.0120,0.0066,-0.0161,971,1063,928,973,0.01,0.02,2.96,0.46,0.4370,3,1,0,0.00,-0.01,-0.09,0.00,0.00,0.00,0.45,102,63
2120,-17.0,6.6,22.5,0.011,-0.281,-1.055,-0.6,-10.7,0.0,0.0161,-0.0190,-0.0230,896,1039,987,1013,0.01,0.02,2.96,0.47,0.4371,3,1,0,0.00,-0.01,-0.10,0.00,0.00,0.00,0.46,105,63
2130,-3.6,7.3,8.2,-0.008,-0.082,-1.067,-0.3,-11.7,0.0,0.0077,-0.0206,-0.0093,914,978,1021,1027,0.01,0.02,2.96,0.48,0.4376,3,1,0,0.00,-0.01,-0.12,0.00,0.00,0.00,0.47,107,63
2140,5.7,3.3,23.5,0.009,0.056,-0.965,-1.2,-12.8,0.0,-0.0072,-0.0177,-0.0241,908,972,963,1087,0.01,0.02,2.97,0.49,0.4363,3,1,0,0.00,-0.02,-0.15,0.02,0.00,0.00,0.48,110,63
2150,5.9,-3.4,9.0,0.069,0.055,-1.100,-1.3,-12.6,0.0,-0.0076,-0.0108,-0.0095,954,961,970,1038,0.01,0.02,2.97,0.50,0.4356,3,1,0,0.00,-0.02,-0.15,0.01,0.00,0.00,0.49,105,63
2161,3.0,-10.8,17.1,0.080,0.075,-1.081,-1.5,-12.3,0.0,-0.0046,-0.0026,-0.0182,950,1001,942,1029,0.01,0.02,2.97,0.51,0.4354,3,1,0,0.00,-0.02,-0.14,0.02,0.00,0.00,0.53,108,63
2171,2.2,-7.6,14.2,-0.031,0.055,-1.037,-1.0,-11.9,0.0,-0.0035,-0.0058,-0.0148,950,994,941,1015,0.01,0.02,2.97,0.52,0.4325,3,1,0,0.00,-0.02,-0.14,0.00,0.00,0.00,0.58,103,63
2181,1.3,5.6,7.5,0.005,-0.136,-1.105,-0.4,-11.7,0.0,-0.0020,-0.0163,-0.0092,980,1007,1034,1076,0.01,0.01,2.98,0.53,0.4584,3,1,0,0.01,-0.02,-0.14,-0.01,0.00,0.00,0.61,105,63
2191,1.5,12.0,10.5,-0.061,-0.112,-1.184,-0.5,-12.0,0.0,-0.0023,-0.0257,-0.0111,953,981,1039,1092,0.01,0.01,2.98,0.54,0.4544,3,1,0,0.01,-0.02,-0.15,-0.01,0.00,0.00,0.65,100,63
2201,3.2,7.4,9.3,0.058,0.001,-1.116,-1.4,-11.9,0.0,-0.0043,-0.0222,-0.0087,955,968,1034,1072,0.01,0.01,2.98,0.56,0.4497,3,1,0,0.00,-0.02,-0.15,0.00,0.00,0.00,0.67,103,63
2211,6.0,0.4,21.9,0.147,0.217,-0.976,-1.7,-11.3,0.0,-0.0075,-0.0148,-0.0218,939,991,981,1080,0.01,0.01,2.99,0.57,0.4447,3,1,0,0.00,-0.02,-0.14,0.01,0.01,0.00,0.69,98,63
2221,2.4,-19.6,29.0,0.195,0.301,-1.127,-1.3,-10.9,0.0,-0.0040,0.0071,-0.0296,955,1033,931,1046,0.01,0.01,2.99,0.58,0.4411,3,1,0,0.01,-0.02,-0.14,0.00,0.01,0.00,0.64,101,63
2231,5.3,-23.9,20.7,0.132,0.182,-1.034,-0.7,-10.1,0.0,-0.0065,0.0133,-0.0225,984,1044,909,1019,0.01,0.01,2.99,0.60,0.4398,3,1,0,0.01,-0.02,-0.13,-0.02,0.01,0.00,0.59,100,63
2241,-1.3,-12.4,33.9,-0.034,-0.106,-1.060,0.0,-9.2,0.0,0.0010,0.0015,-0.0346,942,1081,906,1040,0.01,0.01,2.99,0.61,0.4417,3,1,0,0.01,-0.01,-0.12,-0.04,0.01,0.00,0.59,103,63
2251,2.0,0.3,5.3,-0.187,-0.217,-1.060,0.0,-7.8,0.0,-0.0001,-0.0052,-0.0075,971,999,990,1019,0.01,0.01,3.00,0.62,0.4429,3,1,0,0.01,-0.01,-0.09,-0.05,0.01,0.00,0.60,98,63
2262,3.0,7.2,33.0,-0.202,-0.192,-0.959,-0.2,-5.8,0.0,-0.0032,-0.0134,-0.0344,911,1035,942,1087,0.01,0.01,3.00,0.63,0.4423,3,1,0,0.01,0.00,-0.04,-0.05,0.01,0.00,0.61,101,63
2272,8.0,11.1,2.5,-0.066,-0.072,-1.084,-0.4,-4.1,0.0,-0.0087,-0.0169,-0.0032,973,956,1005,1045,0.01,0.01,3.00,0.64,0.4428,3,1,0,0.01,0.00,0.00,-0.04,0.01,0.00,0.63,96,63
2282,6.7,1.2,22.9,-0.013,0.056,-1.100,-1.2,-2.4,0.0,-0.0095,-0.0084,-0.0263,945,1008,941,1077,0.01,0.01,3.01,0.65,0.4419,3,1,0,0.01,0.00,0.03,-0.02,0.01,0.00,0.64,98,63
2292,6.4,-7.3,14.7,0.079,-0.012,-1.026,-0.9,-2.6,0.0,-0.0076,0.0030,-0.0155,980,1008,943,1028,0.01,0.01,3.01,0.66,0.4404,3,1,0,0.01,0.00,0.03,-0.03,0.01,0.00,0.65,93,63
2302,1.4,3.7,-1.5,0.019,-0.143,-1.117,-1.2,-2.9,0.0,-0.0069,-0.0109,-0.0035,975,962,990,1029,0.01,0.01,3.01,0.67,0.4399,3,1,0,0.01,0.00,0.02,-0.03,0.01,0.00,0.67,96,63
2312,-12.2,2.7,16.7,-0.001,-0.167,-1.053,-1.5,-3.7,0.0,0.0104,-0.0081,-0.0175,923,1007,989,1024,0.01,0.01,3.01,0.68,0.4382,3,1,0,0.01,0.00,0.00,-0.02,0.01,0.00,0.68,91,63
2322,-10.0,-1.3,-3.6,0.126,-0.110,-1.007,-0.1,-3.9,0.0,0.0106,-0.0038,0.0039,966,987,1026,959,0.01,0.01,3.02,0.69,0.4375,3,1,0,0.01,0.00,0.00,-0.06,0.01,0.00,0.68,93,63
2332,-2.9,6.7,37.3,0.203,0.160,-0.963,2.1,-4.4,0.0,0.0043,-0.0126,-0.0376,886,1040,948,1066,0.01,0.01,3.02,0.70,0.4379,3,1,0,0.02,0.00,0.00,-0.12,0.01,0.00,0.69,95,63
2342,-14.7,-5.5,16.0,0.268,0.229,-1.069,2.6,-4.1,0.0,0.0171,-0.0002,-0.0169,924,1040,990,987,0.01,0.01,3.02,0.71,0.4378,3,1,0,0.02,0.00,0.01,-0.12,0.01,0.00,0.71,96,63
2352,-6.2,-6.4,24.6,0.140,0.182,-1.114,2.4,-4.1,0.0,0.0127,0.0000,-0.0278,907,1060,955,1012,0.01,0.01,3.03,0.72,0.4371,3,1,0,0.02,0.00,0.01,-0.12,0.01,0.00,0.73,92,63
2363,1.8,2.1,32.7,-0.020,0.011,-1.238,2.1,-4.7,0.0,0.0000,-0.0087,-0.0336,935,1073,964,1076,0.01,0.01,3.03,0.73,0.4520,3,1,0,0.02,0.00,0.00,-0.11,0.01,0.00,0.74,94,63
2373,7.8,9.6,-0.2,-0.105,-0.069,-1.146,1.3,-5.7,0.0,-0.0068,-0.0170,-0.0006,982,972,1028,1050,0.01,0.01,3.03,0.74,0.4499,3,1,0,0.02,0.00,0.00,-0.09,0.01,0.00,0.75,90,63
2383,13.7,14.3,41.9,-0.165,0.001,-0.925,0.8,-6.3,0.0,-0.0122,-0.0215,-0.0429,1007,1129,1045,1244,0.01,0.01,3.04,0.75,0.5020,3,1,0,0.02,0.00,-0.01,-0.09,0.01,0.00,0.79,91,63
2393,15.7,16.5,-6.0,0.023,-0.041,-0.980,0.6,-6.2,0.0,-0.0154,-0.0246,0.0050,1098,1014,1131,1173,0.02,0.01,3.04,0.77,0.5007,3,1,0,0.02,0.00,0.00,-0.09,0.01,0.00,0.84,91,63
2403,4.6,-4.0,31.3,0.122,0.043,-1.211,0.4,-5.7,0.0,-0.0067,-0.0131,-0.0364,1009,1121,1033,1196,0.02,0.01,3.05,0.78,0.4933,3,1,0,0.02,0.00,0.01,-0.09,0.01,0.00,0.85,93,63
2413,1.9,-24.9,19.7,-0.027,0.073,-1.173,0.2,-4.8,0.0,-0.0020,0.0183,-0.0207,1085,1142,999,1078,0.02,0.01,3.05,0.79,0.4858,3,1,0,0.02,0.00,0.03,-0.08,0.01,0.00,0.86,90,63
2423,-10.9,3.2,-3.8,-0.113,-0.358,-1.077,0.3,-5.6,0.0,0.0077,-0.0028,-0.0016,1115,1150,1155,1132,0.02,0.02,3.05,0.81,0.5188,3,1,0,0.02,0.00,0.01,-0.09,0.01,0.00,0.84,92,63
2433,-0.8,17.1,55.1,-0.174,-0.171,-0.993,-1.6,-4.7,0.0,0.0031,-0.0196,-0.0508,988,1192,1075,1255,0.02,0.02,3.05,0.82,0.5133,3,1,0,0.01,0.00,0.03,-0.04,0.01,0.00,0.83,95,63
2443,1.7,2.0,-22.1,0.230,0.070,-1.355,-2.7,-4.4,0.0,-0.0047,-0.0082,0.0207,1137,1050,1181,1118,0.02,0.02,3.06,0.83,0.5100,3,1,0,0.01,0.00,0.05,-0.01,0.01,0.00,0.83,95,63
2453,15.5,-16.3,71.3,0.136,0.491,-1.310,-4.2,-2.5,0.0,-0.0201,0.0120,-0.0724,1013,1244,909,1246,0.02,0.02,3.06,0.85,0.5004,3,1,0,0.00,0.01,0.09,0.01,0.01,0.00,0.83,93,63
2464,7.7,2.5,-15.6,0.157,-0.078,-1.132,-4.9,-3.1,0.0,-0.0130,-0.0075,0.0145,1136,1029,1108,1095,0.02,0.02,3.06,0.86,0.4944,3,1,0,0.00,0.01,0.07,0.02,0.00,0.00,0.84,89,63
2474,-6.8,7.0,26.0,-0.187,-0.274,-1.162,-5.2,-3.8,0.0,-0.0010,-0.0142,-0.0327,993,1113,1043,1171,0.02,0.02,3.07,0.87,0.4881,3,1,0,0.00,0.00,0.07,0.00,0.00,0.00,0.85,86,63
2484,-15.1,9.4,9.6,0.089,-0.287,-1.234,-4.4,-3.7,0.0,0.0104,-0.0149,-0.0108,1038,1052,1110,1088,0.02,0.02,3.07,0.88,0.4838,3,1,0,0.00,0.00,0.08,0.00,0.00,0.00,0.87,84,63
2494,-9.9,-2.6,20.7,0.030,0.297,-1.156,-3.2,-3.4,0.0,0.0092,-0.0020,-0.0284,986,1129,1029,1101,0.02,0.02,3.08,0.89,0.4782,3,1,0,0.01,0.01,0.09,-0.01,0.00,0.00,0.89,84,63
2504,-3.8,2.7,48.7,0.035,0.051,-1.456,-2.8,-3.0,0.0,0.0005,-0.0077,-0.0499,963,1141,968,1146,0.02,0.02,3.08,0.91,0.4746,3,1,0,0.01,0.01,0.08,-0.02,0.00,0.00,0.90,81,63
2514,-0.1,12.4,-31.3,0.059,-0.182,-1.103,-2.5,-3.9,0.0,-0.0049,-0.0112,0.0258,1081,965,1105,1026,0.02,0.02,3.08,0.92,0.4691,3,1,0,0.01,0.01,0.06,-0.03,0.00,0.00,0.90,80,63
2524,0.7,15.5,58.7,0.287,0.018,-1.184,-2.4,-5.3,0.0,-0.0053,-0.0259,-0.0596,887,1076,973,1226,0.02,0.02,3.08,0.93,0.4671,3,1,0,0.01,0.00,0.08,-0.04,0.00,0.00,0.92,79,63
2534,9.3,-12.1,-28.3,0.119,0.315,-1.396,-1.9,-3.2,0.0,-0.0116,0.0071,0.0271,1121,971,1058,990,0.02,0.02,3.09,0.95,0.4642,3,1,0,0.01,0.01,0.11,-0.03,0.00,0.00,0.95,77,63
2544,-29.3,-3.3,67.6,0.010,0.000,-1.179,-1.3,-2.9,0.0,0.0232,0.0023,-0.0700,857,1209,936,1113,0.01,0.02,3.09,0.96,0.4608,3,1,0,0.01,0.01,0.11,-0.04,0.00,0.00,0.96,76,63
2554,-13.9,14.2,-5.3,-0.165,-0.237,-0.925,-0.5,-3.0,0.0,0.0151,-0.0184,0.0058,975,1009,1106,1002,0.02,0.02,3.09,0.97,0.4578,3,1,0,0.01,0.01,0.12,-0.06,0.00,0.00,0.97,75,63
2564,-1.2,20.2,38.3,-0.009,-0.025,-1.308,-0.2,-4.2,0.0,0.0007,-0.0264,-0.0396,872,1074,992,1164,0.02,0.02,3.10,0.99,0.4592,3,1,0,0.01,0.01,0.09,-0.06,0.00,0.00,0.98,73,63
2575,13.7,-14.1,27.4,0.090,0.300,-1.242,-1.2,-3.5,0.0,-0.0165,0.0065,-0.0232,1019,1044,932,1082,0.02,0.02,3.10,1.00,0.4559,3,1,0,0.01,0.01,0.11,-0.03,0.00,0.00,1.00,71,63
2585,7.3,1.5,-4.1,0.117,-0.180,-0.823,-1.4,-3.5,0.0,-0.0090,-0.0070,0.0028,1017,1011,976,1042,0.02,0.02,3.11,1.02,0.4518,3,1,0,0.01,0.01,0.11,-0.03,0.00,0.00,1.01,71,63
2595,-3.1,19.5,41.8,-0.109,-0.260,-0.969,-1.3,-5.1,0.0,-0.0044,-0.0300,-0.0420,883,1025,980,1156,0.02,0.02,3.11,1.03,0.4516,3,1,0,0.01,0.01,0.08,-0.04,0.00,0.00,1.02,70,63
2605,-2.2,17.2,-36.1,-0.122,-0.231,-1.121,-1.4,-6.4,0.0,-0.0015,-0.0271,0.0342,1029,885,1120,1019,0.02,0.03,3.11,1.04,0.4526,3,1,0,0.01,0.00,0.06,-0.04,0.00,0.00,1.04,69,63
2615,-11.9,3.6,65.0,0.179,-0.059,-1.209,-0.8,-7.0,0.0,0.0108,-0.0125,-0.0664,847,1106,954,1141,0.02,0.03,3.12,1.06,0.4521,3,1,0,0.01,0.00,0.05,-0.06,0.00,0.00,1.05,69,63
2625,-7.3,-11.1,-12.7,0.020,0.228,-1.148,2.0,-5.9,0.0,0.0097,0.0054,0.0162,1032,1008,1048,950,0.02,0.03,3.12,1.07,0.4508,3,1,0,0.02,0.00,0.07,-0.13,0.00,0.00,1.06,68,63
2635,-8.6,0.4,56.5,0.142,0.080,-1.038,2.8,-5.3,0.0,0.0111,-0.0077,-0.0579,853,1154,903,1116,0.02,0.03,3.13,1.09,0.4492,3,1,0,0.03,0.01,0.09,-0.15,0.00,0.00,1.08,67,63
2645,10.4,6.3,10.5,0.100,0.121,-1.234,4.4,-5.7,0.0,-0.0043,-0.0141,-0.0103,966,993,1019,1047,0.02,0.03,3.13,1.10,0.4490,3,1,0,0.03,0.01,0.08,-0.19,0.00,0.00,1.09,66,63
2655,12.7,15.6,11.7,-0.003,-0.040,-1.070,3.8,-6.5,0.0,-0.0098,-0.0236,-0.0175,937,984,990,1107,0.02,0.03,3.13,1.11,0.4482,3,1,0,0.03,0.00,0.07,-0.18,0.00,0.00,1.10,65,63
2665,11.1,7.1,46.9,0.121,0.081,-1.052,2.9,-7.8,0.0,-0.0085,-0.0169,-0.0484,902,1001,953,1152,0.02,0.03,3.13,1.13,0.4468,3,1,0,0.03,0.00,0.04,-0.16,0.00,0.00,1.13,64,63
2675,12.1,-18.8,-17.5,0.091,0.278,-0.985,2.9,-7.7,0.0,-0.0063,0.0034,0.0122,1040,970,1003,981,0.02,0.03,-3.13,1.14,0.4449,3,1,0,0.03,0.00,0.04,-0.16,0.00,0.00,1.14,63,63
2686,2.9,-4.9,77.0,0.000,-0.047,-1.100,2.5,-7.5,0.0,-0.0007,-0.0046,-0.0786,858,1142,847,1147,0.02,0.03,-3.13,1.16,0.4449,3,1,0,0.03,0.00,0.04,-0.15,0.00,0.00,1.16,63,63
2696,5.9,6.9,-43.7,-0.198,-0.360,-1.019,2.2,-7.5,0.0,-0.0073,-0.0141,0.0427,1067,878,1093,959,0.02,0.03,-3.13,1.17,0.4452,3,1,0,0.03,0.00,0.04,-0.16,0.00,0.00,1.17,63,63
2706,-0.3,18.0,77.4,-0.184,-0.354,-0.945,2.1,-7.6,0.0,0.0021,-0.0278,-0.0790,798,1122,882,1177,0.02,0.03,-3.12,1.19,0.4429,3,1,0,0.03,0.00,0.04,-0.16,0.00,0.00,1.18,62,63
2716,-4.0,5.4,-4.0,0.063,-0.018,-1.271,1.9,-7.8,0.0,0.0071,-0.0148,0.0112,994,954,1073,983,0.02,0.03,-3.12,1.20,0.4463,3,1,0,0.03,0.00,0.04,-0.17,0.00,0.00,1.19,61,63
2726,4.6,-13.3,40.2,0.042,0.115,-0.978,1.7,-7.6,0.0,-0.0004,0.0021,-0.0482,756,969,766,964,0.02,0.03,-3.11,1.22,0.3738,3,1,0,0.03,0.00,0.04,-0.16,0.00,0.00,1.21,61,63
2736,11.5,0.0,42.2,0.062,-0.028,-0.949,1.5,-7.5,0.0,-0.0082,-0.0106,-0.0395,788,899,802,965,0.02,0.03,-3.11,1.23,0.3735,3,1,0,0.03,0.00,0.04,-0.17,0.00,0.00,1.22,60,63
2746,0.7,19.6,-27.2,-0.016,-0.090,-1.113,1.6,-7.6,0.0,0.0035,-0.0288,0.0155,551,505,673,601,0.02,0.03,-3.11,1.25,0.2248,3,1,0,0.03,0.00,0.04,-0.17,0.00,0.00,1.24,59,63
2756,11.8,4.5,72.8,-0.034,0.073,-0.728,1.5,-7.5,0.0,-0.0107,-0.0142,-0.0745,444,658,489,782,0.03,0.03,-3.10,1.26,0.2304,3,1,0,0.03,0.00,0.04,-0.17,0.00,0.00,1.25,59,63
2766,17.5,4.1,-56.3,0.050,0.065,-0.779,1.6,-7.3,0.0,-0.0139,-0.0143,0.0504,577,333,578,441,0.03,0.03,-3.10,1.28,0.1716,3,1,0,0.03,0.00,0.04,-0.17,0.00,0.00,1.26,59,63
2777,11.9,7.9,93.2,-0.118,0.241,-1.053,1.9,-6.9,0.0,-0.0104,-0.0170,-0.0949,304,668,351,744,0.02,0.03,-3.09,1.29,0.1899,3,1,0,0.03,0.00,0.04,-0.17,0.00,0.00,1.27,58,63
2787,8.0,-12.0,-43.5,-0.116,0.171,-0.441,2.2,-6.4,0.0,-0.0038,0.0098,0.0491,588,381,534,338,0.02,0.02,-3.10,1.30,0.1602,3,1,0,0.03,0.00,0.05,-0.18,0.00,0.00,1.29,58,63
2797,-22.9,-17.7,57.4,0.134,-0.185,-0.221,2.4,-6.2,0.0,0.0250,0.0094,-0.0592,334,702,385,552,0.02,0.02,-3.09,1.32,0.1775,3,1,0,0.03,0.00,0.05,-0.18,0.00,0.00,1.30,58,63
2807,-19.4,-26.8,16.4,0.180,-0.268,-0.119,2.1,-6.4,0.0,0.0213,0.0184,-0.0182,508,594,549,484,0.02,0.02,-3.09,1.33,0.1988,3,1,0,0.03,0.00,0.05,-0.18,0.00,0.00,1.32,58,63
2817,-3.5,8.6,-3.4,0.062,-0.136,-0.181,2.0,-6.7,0.0,0.0047,-0.0326,-0.0098,480,535,621,641,0.02,0.02,-3.08,1.34,0.2178,3,1,0,0.03,0.00,0.04,-0.18,0.00,0.00,1.34,57,63
2827,21.6,24.7,87.3,-0.246,0.262,-0.171,2.2,-5.7,0.0,-0.0198,-0.0326,-0.0891,384,615,506,829,0.03,0.02,-3.08,1.35,0.2252,3,1,0,0.03,0.00,0.04,-0.18,0.00,0.00,1.35,57,63
2837,21.2,11.8,-59.9,0.013,0.293,-0.267,2.6,-5.0,0.0,-0.0148,-0.0187,0.0571,717,445,732,572,0.02,0.02,-3.08,1.36,0.2428,3,1,0,0.03,0.00,0.05,-0.18,0.00,0.00,1.37,56,63
2847,-22.8,21.6,86.2,0.204,0.056,-0.478,2.7,-5.5,0.0,0.0253,-0.0294,-0.0881,378,811,576,810,0.02,0.02,-3.07,1.38,0.2571,3,1,0,0.03,0.00,0.04,-0.19,0.00,0.00,1.39,56,63
2857,-19.3,59.1,-45.1,-0.301,-0.179,-0.698,2.3,-5.0,0.0,0.0232,-0.0591,0.0487,630,522,902,624,0.03,0.02,-3.07,1.39,0.2708,3,1,0,0.03,0.00,0.04,-0.19,0.00,0.00,1.41,56,63
2867,2.6,19.7,66.3,-0.207,-0.124,-0.754,1.8,-4.0,0.0,-0.0009,-0.0211,-0.0699,342,614,375,656,0.03,0.02,-3.06,1.40,0.1792,3,1,0,0.03,0.00,0.05,-0.19,0.00,0.00,1.41,56,63
2878,19.4,0.3,0.2,0.004,0.252,-0.440,2.2,-4.6,0.0,-0.0176,-0.0071,-0.0021,578,478,503,492,0.03,0.02,-3.07,1.41,0.1879,3,1,0,0.03,0.00,0.04,-0.19,0.00,0.00,1.42,55,63
2888,3.7,18.5,-0.9,-0.282,0.142,-0.215,2.2,-4.4,0.0,-0.0013,-0.0075,-0.0107,503,568,497,563,0.03,0.02,-3.06,1.42,0.1984,3,1,0,0.04,0.00,0.04,-0.20,0.00,0.01,1.42,55,63
2898,0.0,-34.6,61.7,-0.128,-0.222,0.080,1.8,-3.2,0.0,0.0016,0.0293,-0.0637,566,754,356,579,0.03,0.01,-3.06,1.42,0.2148,3,1,0,0.04,0.00,0.05,-0.20,0.00,0.01,1.43,54,63
2908,5.0,-48.8,-35.1,0.469,-0.106,0.375,1.8,-4.8,0.0,-0.0021,0.0331,0.0315,710,582,576,465,0.03,0.02,-3.05,1.43,0.2252,3,1,0,0.03,0.00,0.04,-0.20,0.00,0.01,1.45,53,63
2918,-3.0,25.5,95.3,-0.218,0.216,-0.041,2.1,-5.2,0.0,0.0066,-0.0379,-0.0948,325,699,544,845,0.03,0.02,-3.05,1.44,0.2358,3,1,0,0.04,0.00,0.03,-0.20,0.00,0.01,1.47,53,63
2928,14.8,-5.0,-56.5,-0.178,0.143,-0.223,1.9,-3.9,0.0,-0.0132,-0.0010,0.0545,749,504,733,544,0.03,0.02,-3.05,1.45,0.2512,3,1,0,0.04,0.00,0.05,-0.20,0.00,0.01,1.47,53,63
2938,4.1,-5.6,80.9,0.217,0.157,-0.478,1.9,-4.9,0.0,0.0036,-0.0009,-0.0854,488,825,506,815,0.03,0.02,-3.04,1.45,0.2648,3,1,0,0.04,0.00,0.04,-0.20,0.00,0.01,1.47,53,63
2948,-0.3,80.6,-20.7,-0.377,0.231,-0.586,2.0,-4.8,0.0,0.0020,-0.0879,0.0187,599,509,870,726,0.03,0.02,-3.04,1.46,0.2743,3,1,0,0.04,0.00,0.03,-0.21,0.00,0.01,1.52,52,63
2958,-22.7,44.0,29.6,-0.119,-0.393,-0.841,2.0,-3.3,0.0,0.0231,-0.0254,-0.0422,538,785,722,794,0.03,0.02,-3.03,1.47,0.2921,3,1,0,0.04,0.00,0.05,-0.22,0.00,0.01,1.57,52,63
2968,-11.6,7.3,33.1,0.469,-0.250,-0.742,-7.1,-6.4,0.0,0.0041,-0.0159,-0.0352,618,738,718,774,0.03,0.02,-3.04,1.47,0.2932,1,1,0,0.01,0.00,0.04,-0.21,0.00,0.01,1.54,52,62
2978,31.7,58.3,-33.7,-0.359,0.223,-0.907,-7.5,-6.5,0.0,-0.0396,-0.0672,0.0316,718,490,816,906,0.03,0.02,-3.03,1.48,0.3041,1,1,0,0.01,0.00,0.02,-0.20,0.00,0.01,1.51,51,62
2989,23.4,0.9,78.5,-0.353,0.355,-1.009,-7.4,-5.6,0.0,-0.0359,-0.0015,-0.0762,676,828,546,970,0.03,0.01,-3.03,1.48,0.3160,1,1,0,0.01,0.00,0.05,-0.21,0.00,0.01,1.52,51,62
2999,-36.3,-65.9,-62.7,0.601,-0.318,-0.616,-7.0,-6.1,0.0,0.0289,0.0578,0.0606,923,815,820,505,0.03,0.02,-3.03,1.49,0.3216,1,1,0,0.01,0.00,0.05,-0.23,0.00,0.01,1.53,51,62
3009,-36.5,-0.4,84.2,0.236,-0.360,-1.014,-7.4,-6.5,0.0,0.0288,-0.0081,-0.0864,527,969,669,898,0.03,0.02,-3.02,1.49,0.3217,1,1,0,0.01,0.00,0.03,-0.22,0.00,0.01,1.52,51,62
3019,13.6,20.0,-41.2,-0.188,0.083,-1.147,-7.4,-6.2,0.0,-0.0227,-0.0220,0.0456,875,617,872,786,0.03,0.02,-3.02,1.49,0.3332,1,1,0,0.01,0.00,0.04,-0.22,0.00,0.01,1.52,51,62
3029,-2.9,0.6,48.9,0.054,0.108,-0.378,-6.8,-6.0,0.0,-0.0042,-0.0089,-0.0511,689,878,683,907,0.03,0.02,-3.01,1.50,0.3341,1,1,0,0.01,0.00,0.04,-0.23,0.00,0.01,1.54,51,62
3039,-14.9,20.2,8.2,0.170,-0.105,-0.630,-6.5,-6.5,0.0,0.0110,-0.0341,-0.0011,712,759,883,846,0.03,0.02,-3.02,1.50,0.3398,1,1,0,0.01,0.00,0.04,-0.24,0.00,0.01,1.57,51,62
3049,-10.5,-6.0,-4.9,-0.175,-0.216,-0.546,-6.4,-6.2,0.0,0.0038,-0.0023,0.0026,792,802,816,827,0.03,0.02,-3.01,1.50,0.3447,1,1,0,0.01,0.00,0.04,-0.23,0.00,0.01,1.55,51,62
3059,9.0,-8.3,84.9,0.086,0.160,-0.811,-6.0,-6.0,0.0,-0.0154,0.0000,-0.0871,700,948,626,996,0.03,0.02,-3.01,1.51,0.3492,1,1,0,0.01,0.00,0.04,-0.23,0.00,0.01,1.53,51,62
3069,-11.1,11.9,-57.3,0.089,0.166,-0.924,-5.3,-6.1,0.0,0.0042,-0.0198,0.0494,878,707,969,766,0.02,0.02,-3.01,1.51,0.3556,1,1,0,0.01,0.00,0.04,-0.24,0.00,0.01,1.54,52,62
3079,-19.1,8.3,92.1,-0.090,-0.018,-0.570,-4.8,-6.0,0.0,0.0139,-0.0166,-0.0944,595,989,727,1013,0.02,0.02,-3.00,1.51,0.3562,1,1,0,0.01,0.00,0.04,-0.24,0.00,0.01,1.55,52,62
3089,-14.7,5.0,-61.9,0.105,-0.243,-0.711,-4.5,-5.8,0.0,0.0099,-0.0131,0.0596,918,713,1000,733,0.02,0.02,-3.00,1.51,0.3616,1,1,0,0.01,0.00,0.05,-0.24,0.00,0.01,1.56,52,62
3100,-6.0,15.0,75.2,-0.035,-0.020,-0.701,-3.8,-5.5,0.0,0.0019,-0.0200,-0.0801,652,980,711,1025,0.02,0.02,-2.99,1.51,0.3622,1,1,0,0.01,0.00,0.04,-0.24,0.00,0.01,1.56,52,62
3110,6.3,3.0,-27.9,-0.041,0.160,-0.806,-3.5,-5.5,0.0,-0.0102,-0.0109,0.0255,914,744,906,831,0.02,0.01,-3.00,1.51,0.3655,1,1,0,0.01,0.00,0.04,-0.24,0.00,0.01,1.56,52,62
3120,-6.3,-12.3,19.1,0.037,0.027,-0.879,-2.9,-5.5,0.0,0.0008,-0.0010,-0.0314,789,910,796,911,0.02,0.01,-2.98,1.51,0.3671,1,1,0,0.01,0.00,0.04,-0.25,0.00,0.01,1.56,52,62
3130,-1.2,-0.4,45.9,0.128,-0.012,-1.098,-2.7,-5.4,0.0,-0.0018,-0.0072,-0.0482,775,923,797,966,0.02,0.01,-2.99,1.51,0.3743,1,1,0,0.01,0.00,0.04,-0.25,0.00,0.01,1.56,52,62
3140,2.2,17.6,-45.1,-0.007,0.001,-0.777,-2.3,-5.4,0.0,-0.0061,-0.0282,0.0367,894,732,977,862,0.01,0.01,-2.98,1.51,0.3748,1,1,0,0.01,0.00,0.04,-0.25,0.00,0.01,1.56,53,62
3150,-1.3,7.2,103.3,-0.085,0.071,-0.174,-2.2,-5.3,0.0,-0.0025,-0.0150,-0.1035,657,1010,696,1087,0.01,0.01,-2.98,1.52,0.3729,1,1,0,0.01,0.00,0.04,-0.25,0.00,0.01,1.57,52,62
3160,0.8,-4.6,-69.3,0.141,0.123,-0.748,-1.8,-5.3,0.0,-0.0016,-0.0037,0.0673,980,730,1007,748,0.01,0.01,-2.98,1.52,0.3749,1,1,0,0.01,0.00,0.04,-0.26,0.00,0.01,1.56,52,62
3170,-10.5,12.6,92.1,0.138,-0.127,-0.666,-1.8,-5.3,0.0,0.0071,-0.0222,-0.0953,629,1011,741,1088,0.01,0.01,-2.97,1.52,0.3753,1,1,0,0.01,0.00,0.04,-0.26,0.00,0.01,1.56,52,62
3180,-8.2,1.7,-41.3,0.053,-0.034,-1.265,-1.7,-5.4,0.0,0.0062,-0.0093,0.0389,934,777,996,809,0.01,0.01,-2.98,1.52,0.3815,1,1,0,0.01,0.00,0.04,-0.26,0.00,0.01,1.58,51,62
3190,-13.4,1.6,34.6,0.223,-0.280,-0.904,-1.7,-5.3,0.0,0.0058,-0.0140,-0.0476,750,952,825,983,0.01,0.01,-2.96,1.52,0.3809,1,1,0,0.01,0.00,0.04,-0.26,0.00,0.01,1.60,52,62
3201,-9.5,-21.2,30.9,0.153,-0.216,-1.035,-1.9,-5.3,0.0,0.0073,0.0137,-0.0333,873,901,828,929,0.01,0.01,-2.97,1.52,0.3835,1,1,0,0.01,0.00,0.04,-0.26,0.00,0.01,1.61,53,62
3211,-2.1,-29.9,-34.4,0.259,-0.056,-0.983,-1.7,-5.4,0.0,0.0006,0.0075,0.0222,938,857,912,825,0.01,0.01,-2.96,1.52,0.3838,1,1,0,0.01,0.00,0.04,-0.27,0.00,0.01,1.62,53,62
3221,-2.5,-36.4,96.5,0.165,-0.006,-0.716,-1.9,-5.4,0.0,0.0002,0.0288,-0.0990,740,1047,674,1054,0.01,0.01,-2.96,1.53,0.3814,1,1,0,0.01,0.00,0.04,-0.27,0.00,0.01,1.70,56,62
3231,14.9,-14.6,-67.3,0.268,0.032,-0.703,-1.6,-5.6,0.0,-0.0119,-0.0110,0.0617,959,680,955,767,0.01,0.01,-2.96,1.53,0.3613,1,1,0,0.01,0.00,0.04,-0.27,0.00,0.01,1.75,59,62
3241,1.7,5.1,98.2,0.106,0.082,-0.977,-1.6,-5.4,0.0,-0.0044,-0.0178,-0.1022,593,969,676,1092,0.01,0.01,-2.95,1.54,0.3571,1,1,0,0.01,0.00,0.04,-0.27,0.00,0.01,1.73,58,62
3251,9.1,22.9,-52.8,0.024,-0.047,-1.152,-1.5,-5.3,0.0,-0.0103,-0.0325,0.0524,898,645,997,801,0.01,0.01,-2.95,1.55,0.3585,1,1,0,0.01,0.00,0.05,-0.28,0.00,0.01,1.75,60,62
3261,4.1,34.7,40.4,0.071,-0.144,-0.655,-1.3,-5.2,0.0,-0.0077,-0.0437,-0.0479,655,831,779,1040,0.01,0.01,-2.94,1.55,0.3536,1,1,0,0.01,0.00,0.04,-0.28,0.00,0.01,1.78,60,62
3271,6.4,20.7,14.8,0.020,0.053,-1.006,-1.1,-5.0,0.0,-0.0080,-0.0281,-0.0174,792,788,833,874,0.01,0.01,-2.95,1.56,0.3512,1,1,0,0.01,0.00,0.05,-0.28,0.00,0.01,1.78,60,62
3281,-9.6,26.0,-34.8,0.010,-0.169,-0.834,-0.9,-5.0,0.0,0.0076,-0.0327,0.0284,791,753,888,842,0.01,0.01,-2.94,1.56,0.3496,1,1,0,0.01,0.00,0.04,-0.29,0.00,0.01,1.77,59,62
3291,3.2,4.7,82.6,-0.097,-0.081,-0.297,-0.8,-4.9,0.0,-0.0060,-0.0104,-0.0827,670,930,664,989,0.01,0.01,-2.94,1.57,0.3469,1,1,0,0.01,0.00,0.04,-0.29,0.00,0.01,1.66,61,62
3302,9.0,11.5,-79.4,-0.010,0.146,-0.585,-0.4,-5.1,0.0,-0.0098,-0.0190,0.0767,919,632,994,738,0.01,0.01,-2.93,1.57,0.3508,1,1,0,0.01,0.00,0.04,-0.29,0.00,0.01,1.55,61,62
3312,3.8,13.4,99.2,-0.025,0.096,-0.773,-0.2,-4.9,0.0,-0.0038,-0.0222,-0.1018,610,984,693,1084,0.01,0.01,-2.92,1.57,0.3625,1,1,0,0.01,0.00,0.05,-0.30,0.00,0.01,1.56,62,62
3322,-7.5,5.7,-69.4,-0.063,-0.044,-1.183,-0.2,-4.9,0.0,0.0081,-0.0125,0.0685,957,723,1038,733,0.01,0.01,-2.93,1.57,0.3730,1,1,0,0.01,0.00,0.05,-0.31,0.00,0.01,1.57,62,62
3332,-8.0,8.7,64.2,-0.070,-0.098,-0.977,-0.1,-4.7,0.0,0.0075,-0.0159,-0.0669,686,1018,751,1029,0.01,0.01,-2.92,1.56,0.3774,1,1,0,0.01,0.00,0.04,-0.31,0.00,0.01,1.57,61,62
3342,-2.9,-9.8,-13.8,-0.107,-0.071,-1.170,-0.2,-4.8,0.0,-0.0033,0.0031,0.0202,930,841,906,842,0.01,0.01,-2.92,1.56,0.3820,1,1,0,0.01,0.00,0.05,-0.31,0.00,0.01,1.57,60,62
3352,22.2,-12.3,1.1,-0.021,0.061,-0.882,-0.1,-4.6,0.0,-0.0236,0.0057,-0.0082,908,884,798,951,0.01,0.01,-2.91,1.56,0.3848,1,1,0,0.01,0.00,0.04,-0.31,0.00,0.01,1.58,60,62
3362,18.0,-16.4,58.4,-0.077,0.160,-0.757,-0.2,-4.8,0.0,-0.0213,-0.0015,-0.0522,817,911,775,1028,0.01,0.01,-2.92,1.56,0.3837,1,1,0,0.01,0.00,0.05,-0.31,0.00,0.01,1.58,60,62
3372,12.6,14.7,-55.3,0.092,-0.011,-0.930,0.0,-4.7,0.0,-0.0125,-0.0252,0.0504,939,721,1010,882,0.01,0.01,-2.91,1.56,0.3865,1,1,0,0.01,0.00,0.05,-0.32,0.00,0.01,1.53,62,62
3382,14.4,19.1,98.6,0.014,0.078,-1.119,0.0,-4.7,0.0,-0.0148,-0.0263,-0.1014,668,980,756,1179,0.01,0.01,-2.90,1.55,0.3905,1,1,0,0.01,0.00,0.04,-0.32,0.00,0.01,1.48,61,62
3392,2.5,44.8,-65.6,0.022,-0.156,-1.018,0.6,-4.9,0.0,-0.0026,-0.0548,0.0630,938,677,1120,908,0.01,0.01,-2.91,1.55,0.3984,3,1,0,0.01,0.00,0.00,0.00,0.00,0.01,1.40,64,63
3402,-6.7,40.1,89.7,0.052,-0.104,-1.154,0.6,-4.6,0.0,0.0071,-0.0472,-0.0926,642,1033,822,1208,0.00,0.01,-2.89,1.54,0.4067,3,1,0,0.01,0.00,0.00,0.00,0.00,0.01,1.33,63,63
3413,3.6,16.5,-20.6,-0.011,0.143,-1.045,-30.3,33.8,0.0,-0.0359,0.0225,0.0258,1132,872,881,903,0.00,0.01,-2.90,1.53,0.4177,3,1,0,-0.09,0.13,0.95,0.77,0.00,0.01,1.37,64,63
3423,-7.6,2.9,25.8,0.010,0.049,-0.913,-19.1,17.6,0.0,-0.0118,0.0123,-0.0287,923,1060,811,1028,0.00,0.01,-2.89,1.52,0.4222,3,1,0,-0.05,0.07,0.54,0.50,0.00,0.01,1.41,64,63
3433,-1.7,-11.7,49.5,0.025,0.157,-0.944,-14.4,4.2,0.0,-0.0131,0.0160,-0.0498,950,1045,816,1015,0.00,0.01,-2.89,1.52,0.4227,3,1,0,-0.04,0.02,0.21,0.38,0.00,0.01,1.51,67,63
3443,-2.4,1.9,-37.5,0.045,0.021,-0.781,-13.4,-8.7,0.0,-0.0108,-0.0121,0.0312,991,864,995,939,0.00,0.01,-2.88,1.51,0.4178,3,1,0,-0.03,-0.01,-0.10,0.37,0.00,0.00,1.61,66,63
3453,-13.7,22.9,96.1,0.032,0.058,-0.984,-8.4,-11.2,0.0,0.0049,-0.0365,-0.0991,681,1064,816,1161,0.00,0.01,-2.88,1.51,0.4089,3,1,0,-0.02,-0.02,-0.15,0.25,0.00,0.00,1.72,68,63
3463,-11.1,16.0,-71.4,0.046,-0.076,-0.954,-6.8,-12.4,0.0,0.0048,-0.0270,0.0677,979,750,1092,818,0.00,0.02,-2.88,1.52,0.3979,3,1,0,-0.02,-0.02,-0.17,0.22,0.00,0.00,1.84,68,63
3473,-15.0,17.8,99.9,-0.174,0.256,-1.103,-5.3,-9.2,0.0,0.0093,-0.0295,-0.1029,583,1064,760,1107,0.00,0.02,-2.87,1.53,0.3814,3,1,0,-0.01,-0.01,-0.07,0.20,0.00,0.00,1.71,67,63
3483,-14.9,10.6,-46.2,0.036,0.030,-0.977,-2.2,-18.7,0.0,0.0123,-0.0318,0.0432,906,759,1037,805,0.00,0.02,-2.88,1.53,0.3803,3,1,0,0.00,-0.04,-0.30,0.14,0.00,0.00,1.58,65,63
3493,-7.7,6.3,41.8,0.047,0.017,-1.043,2.4,-25.9,0.0,0.0085,-0.0328,-0.0487,706,947,845,1030,0.00,0.02,-2.87,1.53,0.3832,3,1,0,0.00,-0.06,-0.47,0.05,0.00,0.00,1.55,65,63
3503,-14.1,-26.0,32.8,0.209,0.215,-1.030,5.1,-28.3,0.0,0.0189,-0.0046,-0.0358,807,930,913,931,0.00,0.02,-2.87,1.53,0.3902,3,1,0,0.01,-0.07,-0.52,0.00,0.00,0.00,1.52,64,63
3514,-8.8,-29.5,-19.9,0.264,0.124,-0.887,3.2,-23.4,0.0,0.0139,-0.0040,0.0080,852,902,950,884,-0.01,0.02,-2.86,1.52,0.3912,3,1,0,0.00,-0.05,-0.39,0.07,0.00,0.00,1.51,64,63
3524,-16.4,-46.2,108.3,0.094,0.112,-0.706,5.5,-11.2,0.0,0.0218,0.0326,-0.1114,716,1167,711,1012,-0.01,0.02,-2.86,1.52,0.3936,3,1,0,0.00,-0.01,-0.10,0.02,0.00,0.00,1.50,64,63
3534,-3.2,-20.1,-65.1,0.266,-0.014,-0.789,3.7,-3.2,0.0,0.0073,0.0113,0.0609,997,823,1029,782,-0.01,0.02,-2.86,1.52,0.3968,3,1,0,0.00,0.01,0.08,0.07,0.00,0.00,1.49,64,63
3544,-12.8,21.3,115.8,-0.031,-0.010,-1.205,-0.4,2.7,0.0,0.0117,-0.0188,-0.1193,628,1123,744,1150,-0.01,0.02,-2.85,1.51,0.3988,3,1,0,-0.01,0.02,0.21,0.18,0.00,0.00,1.48,64,63
3554,-11.3,22.4,-60.7,-0.083,-0.130,-1.472,-0.5,4.8,0.0,0.0106,-0.0203,0.0576,1009,818,1087,788,-0.01,0.01,-2.86,1.51,0.4063,3,1,0,-0.01,0.03,0.24,0.18,0.00,0.00,1.48,63,63
3564,-16.8,19.6,59.8,-0.220,-0.162,-0.902,-0.6,6.7,0.0,0.0162,-0.0066,-0.0754,733,1080,820,1044,-0.01,0.01,-2.84,1.51,0.4030,3,1,0,-0.01,0.03,0.26,0.17,0.00,0.00,1.47,63,63
3574,-4.7,4.2,0.2,-0.155,-0.109,-1.298,-0.9,8.5,0.0,0.0046,0.0083,0.0003,976,968,915,864,-0.01,0.01,-2.85,1.50,0.4091,3,1,0,-0.01,0.04,0.28,0.17,0.00,0.00,1.47,63,63
3584,14.3,4.8,-9.6,-0.340,0.052,-0.974,-1.1,9.9,0.0,-0.0155,0.0102,0.0029,995,956,848,917,0.00,0.01,-2.84,1.50,0.4080,3,1,0,-0.01,0.04,0.31,0.17,0.00,0.00,1.47,63,63
3594,13.1,8.7,69.6,-0.077,0.132,-0.950,-1.3,10.7,0.0,-0.0118,0.0039,-0.0691,845,1056,776,1031,0.00,0.01,-2.84,1.49,0.4072,3,1,0,-0.01,0.04,0.33,0.17,0.00,0.00,1.47,63,63
3604,8.1,13.0,-55.9,-0.050,-0.048,-1.116,-1.7,11.2,0.0,-0.0100,-0.0042,0.0526,1053,814,982,858,0.00,0.01,-2.83,1.49,0.4068,3,1,0,-0.01,0.04,0.35,0.16,0.00,0.00,1.48,63,63
3615,3.0,28.0,102.2,0.037,-0.039,-0.973,-1.9,11.6,0.0,-0.0091,-0.0136,-0.1021,724,1075,741,1161,0.00,0.01,-2.83,1.49,0.4061,3,1,0,-0.01,0.05,0.38,0.16,0.00,0.00,1.48,63,63
3625,-2.2,0.6,-54.1,0.070,0.005,-1.118,-1.9,11.8,0.0,0.0000,0.0089,0.0508,1047,834,1022,799,0.00,0.01,-2.83,1.48,0.4063,3,1,0,-0.01,0.05,0.40,0.16,0.00,0.00,1.48,63,63
3635,-10.3,10.8,82.2,-0.057,0.017,-0.766,-1.5,12.0,0.0,0.0121,0.0005,-0.0913,726,1116,769,1069,0.00,0.01,-2.82,1.48,0.4033,3,1,0,-0.01,0.06,0.43,0.15,0.00,0.00,1.48,63,63
3645,-7.6,25.4,-8.5,0.076,-0.004,-1.051,-1.4,12.0,0.0,0.0058,-0.0158,0.0052,945,903,976,866,0.00,0.02,-2.82,1.48,0.4047,3,1,0,-0.01,0.06,0.45,0.14,0.00,0.00,1.48,63,63
3655,-15.5,34.2,17.9,-0.043,-0.167,-0.972,-1.0,11.9,0.0,0.0143,-0.0248,-0.0212,820,982,903,998,0.00,0.02,-2.81,1.48,0.4064,3,1,0,0.00,0.06,0.47,0.14,0.00,0.00,1.48,62,63
3665,-13.6,35.9,53.0,0.090,-0.052,-0.821,-0.5,11.8,0.0,0.0145,-0.0224,-0.0521,783,1013,899,998,0.00,0.03,-2.82,1.47,0.4051,3,1,0,0.00,0.07,0.50,0.13,0.00,0.00,1.47,63,63
3675,-17.7,35.2,-42.3,-0.105,-0.047,-0.989,0.1,11.6,0.0,0.0176,-0.0214,0.0367,941,904,1023,845,0.00,0.03,-2.81,1.47,0.4078,3,1,0,0.00,0.07,0.52,0.13,-0.01,0.00,1.47,63,63
3685,-3.4,35.4,99.8,-0.187,0.134,-1.022,0.4,11.5,0.0,0.0098,-0.0127,-0.0994,702,1114,787,1125,0.00,0.03,-2.80,1.47,0.4097,3,1,0,0.00,0.07,0.55,0.12,-0.01,0.00,1.46,63,63
3695,-7.7,44.1,-57.9,0.023,-0.098,-0.852,0.8,11.2,0.0,0.0083,-0.0354,0.0545,984,797,1091,855,-0.01,0.04,-2.81,1.46,0.4096,3,1,0,0.00,0.08,0.57,0.12,-0.01,0.00,1.45,63,63
3705,-22.5,40.2,90.6,0.092,-0.087,-1.217,1.3,11.0,0.0,0.0182,-0.0351,-0.1001,648,1094,830,1167,-0.01,0.04,-2.79,1.46,0.4112,3,1,0,0.00,0.08,0.60,0.11,-0.01,0.00,1.44,63,63
3715,-5.7,15.4,-20.8,-0.028,0.079,-1.250,1.7,11.1,0.0,0.0081,-0.0076,0.0210,956,887,1029,884,-0.01,0.05,-2.80,1.46,0.4135,3,1,0,0.00,0.08,0.62,0.11,-0.01,0.00,1.43,62,63
3726,-6.4,13.3,41.3,-0.058,0.038,-0.951,2.1,11.3,0.0,0.0083,-0.0044,-0.0448,791,1078,864,1023,-0.01,0.05,-2.79,1.45,0.4132,3,1,0,0.00,0.09,0.64,0.10,-0.01,0.00,1.42,62,63
3736,-1.6,5.6,52.6,0.048,0.026,-1.379,1.9,11.4,0.0,0.0013,0.0053,-0.0532,873,1044,834,1020,-0.01,0.05,-2.79,1.45,0.4153,3,1,0,0.00,0.09,0.67,0.10,-0.02,0.00,1.42,63,63
3746,4.8,12.9,-35.2,0.069,-0.045,-1.214,-21.1,-5.2,0.0,-0.0262,-0.0206,0.0316,988,821,965,1008,-0.01,0.06,-2.78,1.45,0.4170,3,1,0,-0.08,0.04,0.27,0.68,-0.02,0.00,1.40,64,63
3756,-16.7,0.9,101.5,-0.040,-0.016,-1.034,-21.9,-5.4,0.0,-0.0075,-0.0061,-0.1001,756,1106,751,1158,-0.01,0.06,-2.78,1.44,0.4155,3,1,0,-0.08,0.04,0.28,0.69,-0.02,0.00,1.39,63,63
3766,0.7,-9.4,-75.5,0.122,-0.313,-0.903,-22.6,-5.7,0.0,-0.0260,0.0024,0.0710,1136,761,1011,867,-0.01,0.06,-2.78,1.44,0.4160,3,1,0,-0.09,0.04,0.29,0.71,-0.02,0.00,1.38,63,63
3776,-6.5,14.9,103.4,0.140,-0.116,-1.054,-23.0,-5.7,0.0,-0.0168,-0.0232,-0.1070,742,1084,741,1221,-0.01,0.06,-2.77,1.43,0.4176,3,1,0,-0.09,0.04,0.31,0.72,-0.02,-0.01,1.37,63,63
3786,-21.7,1.1,-45.7,0.175,0.024,-0.887,-23.1,-6.0,0.0,-0.0035,-0.0145,0.0526,1025,812,1066,881,-0.01,0.06,-2.78,1.43,0.4171,3,1,0,-0.09,0.04,0.31,0.73,-0.02,-0.01,1.37,63,63
3796,-24.7,4.0,61.5,0.078,0.000,-0.848,-23.0,-5.2,0.0,0.0008,-0.0120,-0.0694,776,1069,823,1115,-0.01,0.06,-2.76,1.42,0.4169,3,1,0,-0.09,0.05,0.33,0.74,-0.02,-0.01,1.37,63,63
3806,-22.9,-3.1,14.8,0.154,-0.065,-0.798,-22.7,-5.1,0.0,0.0000,-0.0045,-0.0184,915,962,938,975,-0.01,0.06,-2.77,1.42,0.4178,3,1,0,-0.09,0.05,0.34,0.76,-0.02,-0.01,1.36,63,63
3816,-28.1,2.2,-22.7,0.074,0.033,-1.063,-22.2,-4.4,0.0,0.0084,-0.0181,0.0084,918,918,1019,955,-0.02,0.06,-2.76,1.41,0.4207,3,1,0,-0.09,0.05,0.35,0.77,-0.02,-0.01,1.35,63,63
3826,-28.9,-18.2,79.7,0.077,0.054,-0.880,-21.6,-3.9,0.0,0.0069,0.0117,-0.0834,808,1126,807,1079,-0.02,0.06,-2.76,1.41,0.4219,3,1,0,-0.10,0.05,0.36,0.78,-0.03,-0.02,1.35,63,63
3837,-20.9,-19.8,-62.5,0.166,0.060,-0.885,-20.8,-3.3,0.0,-0.0004,0.0058,0.0544,1069,862,1046,842,-0.03,0.06,-2.75,1.40,0.4217,3,1,0,-0.10,0.05,0.37,0.79,-0.03,-0.02,1.34,63,63
3847,-42.7,-37.3,102.6,0.204,0.283,-1.460,-20.0,-2.3,0.0,0.0225,0.0325,-0.1063,769,1243,755,1075,-0.03,0.06,-2.75,1.40,0.4247,3,1,0,-0.10,0.05,0.39,0.80,-0.03,-0.02,1.33,63,63
3857,-37.7,-53.5,-53.1,0.226,-0.034,-0.870,-19.4,-1.7,0.0,0.0181,0.0493,0.0493,1124,977,992,744,-0.04,0.06,-2.75,1.39,0.4241,3,1,0,-0.10,0.05,0.39,0.82,-0.03,-0.02,1.33,63,63
3867,-36.1,-13.5,75.6,0.103,-0.170,-0.644,-18.5,-0.7,0.0,0.0172,0.0101,-0.0794,793,1173,783,1055,-0.04,0.06,-2.74,1.39,0.4198,3,1,0,-0.11,0.06,0.41,0.83,-0.03,-0.03,1.34,62,63
3877,-35.9,-9.0,3.0,-0.038,-0.115,-1.225,-17.8,-0.8,0.0,0.0182,0.0086,0.0053,953,1002,989,900,-0.05,0.06,-2.74,1.38,0.4251,3,1,0,-0.11,0.06,0.41,0.84,-0.03,-0.03,1.34,63,63
3887,-29.2,0.0,21.1,-0.221,-0.200,-1.016,-17.3,-0.3,0.0,0.0131,-0.0022,-0.0277,864,1047,930,996,-0.05,0.06,-2.73,1.38,0.4240,3,1,0,-0.11,0.06,0.42,0.85,-0.03,-0.03,1.33,63,63
3897,-20.5,15.5,63.3,-0.007,-0.130,-1.024,-17.0,-0.3,0.0,0.0032,-0.0185,-0.0671,804,1068,884,1091,-0.05,0.06,-2.73,1.37,0.4255,3,1,0,-0.11,0.06,-0.59,0.75,-0.03,-0.03,1.33,64,63
3907,-14.7,37.0,-44.2,-0.034,-0.096,-1.070,-12.6,-42.2,0.0,-0.0013,-0.0803,0.0356,883,751,1157,1058,-0.05,0.06,-2.73,1.37,0.4257,3,1,0,-0.10,-0.07,-0.91,0.46,-0.03,-0.04,1.32,64,63
3917,-21.9,8.1,95.5,0.129,0.101,-1.345,-0.1,-55.6,0.0,0.0215,-0.0665,-0.0994,618,1049,945,1254,-0.06,0.06,-2.72,1.37,0.4281,3,1,0,-0.06,-0.12,-0.61,0.11,-0.03,-0.04,1.32,64,63
3928,-20.8,-22.4,-57.1,0.100,-0.051,-0.989,14.8,-31.9,0.0,0.0324,-0.0181,0.0546,976,892,1167,838,-0.06,0.06,-2.72,1.36,0.4287,3,1,0,-0.01,-0.04,-0.33,0.11,-0.03,-0.04,1.32,64,63
3938,-25.0,-15.4,86.7,0.144,-0.084,-0.977,17.8,-23.9,0.0,0.0411,-0.0072,-0.0959,693,1211,876,1083,-0.06,0.06,-2.71,1.36,0.4277,3,1,0,0.00,-0.01,-0.14,0.05,-0.03,-0.04,1.31,64,63
3948,-3.5,-38.9,-20.6,0.183,0.041,-0.878,15.9,-14.4,0.0,0.0180,0.0216,0.0204,1027,982,1010,846,-0.06,0.06,-2.72,1.35,0.4279,3,1,0,0.00,0.01,0.07,0.10,-0.03,-0.04,1.30,64,63
3958,5.9,-41.6,31.2,0.101,0.044,-1.011,14.9,-5.8,0.0,0.0095,0.0324,-0.0387,938,1120,851,961,-0.06,0.06,-2.71,1.35,0.4286,3,1,0,-0.01,0.04,0.26,0.12,-0.03,-0.04,1.31,64,63
3968,14.1,-56.9,59.0,0.165,0.070,-0.791,13.0,2.0,0.0,-0.0030,0.0460,-0.0511,963,1145,777,982,-0.06,0.05,-2.71,1.35,0.4281,3,1,0,-0.01,0.06,0.44,0.14,-0.03,-0.04,1.31,64,63
3978,20.3,-34.9,-34.0,0.313,0.078,-1.020,11.2,-0.5,0.0,-0.0088,0.0269,0.0277,1058,939,961,905,-0.05,0.05,-2.70,1.34,0.4275,3,1,0,-0.01,0.05,0.35,0.16,-0.03,-0.04,1.29,64,63
3988,6.0,-36.0,116.0,-0.029,-0.132,-0.851,11.2,0.5,0.0,0.0051,0.0338,-0.1201,796,1242,691,1127,-0.05,0.04,-2.69,1.34,0.4266,3,1,0,-0.01,0.05,0.34,0.13,-0.03,-0.04,1.27,64,63
3998,30.7,-35.6,-63.5,-0.062,-0.096,-0.906,8.1,-0.2,0.0,-0.0268,0.0310,0.0569,1184,868,966,852,-0.04,0.04,-2.69,1.33,0.4285,3,1,0,-0.02,0.04,0.29,0.18,-0.03,-0.04,1.28,65,63
4008,18.0,-1.9,102.1,-0.122,-0.056,-1.104,8.6,0.0,0.0,-0.0077,0.0053,-0.1103,780,1168,731,1177,-0.04,0.04,-2.68,1.33,0.4266,3,1,0,-0.01,0.04,0.28,0.13,-0.03,-0.04,1.30,65,63
4019,23.5,11.0,-42.7,-0.064,-0.208,-0.966,8.1,-0.9,0.0,-0.0149,-0.0028,0.0497,1082,838,1036,905,-0.03,0.04,-2.69,1.33,0.4273,3,1,0,-0.01,0.04,0.25,0.11,-0.04,-0.04,1.31,65,63
4029,19.6,18.7,40.0,-0.068,-0.077,-0.905,8.0,-3.4,0.0,-0.0117,-0.0237,-0.0485,844,983,889,1117,-0.03,0.04,-2.67,1.32,0.4237,3,1,0,0.00,0.03,0.19,0.08,-0.04,-0.04,1.32,65,63
4039,21.7,24.6,29.0,0.024,-0.027,-1.128,8.2,-4.2,0.0,-0.0137,-0.0317,-0.0331,883,925,942,1078,-0.03,0.04,-2.68,1.32,0.4229,3,1,0,0.00,0.03,0.18,0.04,-0.04,-0.04,1.32,65,63
4049,6.9,23.5,-29.5,-0.025,0.039,-1.292,8.3,-7.4,0.0,0.0011,-0.0337,0.0253,922,855,1050,996,-0.02,0.04,-2.67,1.32,0.4222,3,1,0,0.00,0.02,0.11,0.02,-0.04,-0.04,1.32,65,63
4059,4.1,9.1,102.9,0.048,0.230,-1.169,10.5,-8.9,0.0,0.0061,-0.0208,-0.1071,701,1115,825,1170,-0.02,0.04,-2.67,1.32,0.4206,3,1,0,0.01,0.01,0.08,-0.05,-0.04,-0.04,1.32,66,63
4069,4.8,20.8,-60.3,0.141,-0.078,-1.006,13.6,-8.5,0.0,0.0083,-0.0326,0.0548,970,803,1123,895,-0.02,0.05,-2.67,1.32,0.4181,3,1,0,0.02,0.02,0.11,-0.14,-0.04,-0.04,1.32,66,63
4079,-4.5,19.1,110.0,0.028,-0.123,-1.388,15.8,-7.7,0.0,0.0202,-0.0298,-0.1143,641,1141,824,1195,-0.02,0.05,-2.66,1.31,0.4194,3,1,0,0.03,0.02,0.14,-0.21,-0.04,-0.04,1.30,66,63
4089,15.7,9.6,-47.4,-0.070,0.009,-1.264,17.0,-10.3,0.0,0.0033,-0.0246,0.0491,991,818,1097,898,-0.01,0.05,-2.66,1.31,0.4199,3,1,0,0.03,0.01,0.09,-0.25,-0.04,-0.04,1.29,66,63
4099,7.4,20.5,73.4,-0.044,-0.065,-0.938,17.8,-12.9,0.0,0.0106,-0.0340,-0.0843,693,1079,859,1156,-0.01,0.05,-2.65,1.31,0.4175,3,1,0,0.04,0.01,0.03,-0.28,-0.04,-0.04,1.30,66,63
4109,-2.2,4.5,10.4,0.143,0.128,-1.317,16.0,-13.4,0.0,0.0181,-0.0208,-0.0148,862,957,1007,960,-0.01,0.05,-2.66,1.31,0.4172,3,1,0,0.03,0.01,0.03,-0.24,-0.04,-0.04,1.31,65,63
4119,6.3,0.3,2.4,0.025,0.108,-1.143,16.1,-14.4,0.0,0.0095,-0.0127,-0.0189,867,975,951,987,-0.01,0.05,-2.64,1.31,0.4165,3,1,0,0.04,0.00,0.00,-0.26,-0.04,-0.03,1.31,64,63
4130,13.3,12.0,77.3,0.123,0.118,-1.141,14.2,-11.7,0.0,0.0007,-0.0268,-0.0817,744,1059,856,1120,-0.01,0.05,-2.64,1.31,0.4164,3,1,0,0.03,0.01,0.06,-0.23,-0.04,-0.03,1.31,64,63
4140,13.2,25.1,-61.4,-0.002,0.084,-1.274,14.2,-9.1,0.0,0.0034,-0.0355,0.0549,969,808,1112,893,0.00,0.05,-2.64,1.30,0.4169,3,1,0,0.04,0.02,0.12,-0.25,-0.04,-0.03,1.30,64,63
4150,10.0,1.3,99.1,0.060,0.116,-1.262,13.5,-8.5,0.0,0.0028,-0.0114,-0.1030,736,1125,771,1152,0.00,0.05,-2.63,1.30,0.4171,3,1,0,0.04,0.02,0.13,-0.25,-0.04,-0.03,1.28,64,63
4160,19.1,-15.5,-63.9,0.132,-0.023,-1.286,12.9,-9.0,0.0,-0.0064,0.0037,0.0594,1085,832,1044,841,0.00,0.05,-2.64,1.30,0.4194,3,1,0,0.04,0.02,0.11,-0.26,-0.04,-0.03,1.29,65,63
4170,8.8,-20.2,81.8,0.173,0.062,-1.264,12.6,-12.0,0.0,0.0026,0.0033,-0.0924,775,1134,772,1111,0.00,0.05,-2.62,1.30,0.4182,3,1,0,0.04,0.00,0.01,-0.28,-0.04,-0.03,1.30,65,63
4180,7.7,-33.0,-14.9,0.194,0.187,-1.246,10.7,-13.6,0.0,0.0028,0.0166,0.0104,1038,922,961,873,0.00,0.04,-2.63,1.30,0.4184,3,1,0,0.04,0.00,-0.03,-0.25,-0.04,-0.03,1.29,65,63
4190,12.7,-17.1,22.7,-0.061,-0.008,-1.052,8.7,-15.5,0.0,-0.0084,0.0102,-0.0377,906,1016,835,1010,0.00,0.04,-2.61,1.30,0.4149,3,1,0,0.03,0.00,-0.10,-0.22,-0.04,-0.03,1.29,65,63
4200,10.5,-0.9,65.2,-0.008,-0.062,-1.324,8.1,-17.5,0.0,-0.0025,-0.0196,-0.0698,847,1058,844,1037,0.01,0.04,-2.62,1.30,0.4173,3,1,0,0.03,-0.01,-0.17,-0.23,-0.04,-0.03,1.29,65,63
4210,0.0,-2.9,-41.7,-0.130,-0.157,-1.096,8.7,-19.4,0.0,0.0111,-0.0125,0.0298,957,886,1046,891,0.01,0.04,-2.61,1.29,0.4166,3,1,0,0.04,-0.02,-0.22,-0.27,-0.04,-0.03,1.29,66,63
4221,12.3,11.6,109.7,-0.130,-0.013,-0.961,7.4,-19.9,0.0,-0.0051,-0.0346,-0.1143,691,1108,779,1196,0.01,0.04,-2.60,1.29,0.4157,3,1,0,0.04,-0.02,-0.25,-0.26,-0.04,-0.02,1.30,66,63
4231,11.3,1.8,-57.9,-0.030,-0.143,-0.987,7.1,-20.7,0.0,-0.0043,-0.0255,0.0533,1035,820,1058,866,0.02,0.03,-2.60,1.29,0.4165,3,1,0,0.04,-0.03,-0.28,-0.28,-0.04,-0.02,1.30,67,63
4241,-7.0,-3.9,99.5,-0.064,0.027,-1.232,5.6,-23.5,0.0,0.0134,-0.0220,-0.1097,668,1133,802,1166,0.02,0.03,-2.59,1.29,0.4152,3,1,0,0.04,-0.04,-0.36,-0.25,-0.04,-0.02,1.31,67,63
4251,4.1,-11.3,-17.6,-0.012,0.169,-1.127,4.0,-23.9,0.0,-0.0003,-0.0156,0.0130,968,896,1015,890,0.02,0.03,-2.60,1.29,0.4151,3,1,0,0.03,-0.04,-0.39,-0.22,-0.04,-0.02,1.32,67,63
4261,6.8,1.6,36.5,-0.107,-0.061,-1.002,2.6,-25.1,0.0,-0.0012,-0.0176,-0.0530,799,1034,841,1064,0.02,0.03,-2.58,1.29,0.4110,3,1,0,0.03,-0.05,-0.44,-0.20,-0.04,-0.02,1.33,67,63
4271,18.6,8.2,43.5,0.010,0.033,-1.323,2.2,-25.1,0.0,-0.0166,-0.0364,-0.0482,831,922,918,1079,0.02,0.03,-2.59,1.29,0.4126,3,1,0,0.03,-0.05,-0.45,-0.19,-0.04,-0.02,1.32,67,63
4281,7.6,10.2,-33.4,-0.022,-0.121,-1.346,1.8,-24.3,0.0,-0.0056,-0.0375,0.0255,904,842,1015,986,0.02,0.02,-2.58,1.29,0.4122,3,1,0,0.03,-0.05,-0.45,-0.19,-0.04,-0.02,1.30,66,63
4291,6.4,-4.0,102.0,0.025,0.093,-1.368,1.9,-23.4,0.0,-0.0050,-0.0210,-0.1021,716,1083,777,1181,0.02,0.02,-2.58,1.29,0.4135,3,1,0,0.03,-0.05,-0.45,-0.20,-0.03,-0.02,1.32,66,63
4301,-2.0,-3.3,-71.0,0.198,-0.074,-1.146,0.9,-23.6,0.0,0.0027,-0.0233,0.0662,1009,768,1096,863,0.02,0.02,-2.58,1.29,0.4108,3,1,0,0.03,-0.06,-0.47,-0.18,-0.03,-0.02,1.33,66,63
4311,-19.4,-21.1,101.4,0.143,0.008,-1.264,0.1,-24.4,0.0,0.0182,-0.0074,-0.1071,685,1138,753,1144,0.02,0.01,-2.57,1.29,0.4087,3,1,0,0.03,-0.06,-0.52,-0.17,-0.03,-0.02,1.34,66,63
4321,-6.2,-40.1,-43.9,0.115,0.040,-1.253,-0.1,-22.4,0.0,0.0037,0.0126,0.0469,1036,872,1002,810,0.03,0.01,-2.57,1.29,0.4087,3,1,0,0.03,-0.06,-0.49,-0.16,-0.03,-0.02,1.34,66,63
4331,-9.5,-30.2,47.8,-0.029,-0.013,-1.008,-0.5,-20.1,0.0,0.0087,0.0071,-0.0527,807,1090,787,1005,0.03,0.00,-2.56,1.29,0.4045,3,1,0,0.02,-0.06,-0.47,-0.14,-0.03,-0.02,1.34,66,63
4342,-18.2,-30.1,29.1,0.211,-0.042,-1.280,-2.3,-17.3,0.0,0.0140,0.0208,-0.0191,934,1013,874,873,0.03,0.00,-2.56,1.29,0.4052,3,1,0,0.02,-0.05,-0.42,-0.10,-0.03,-0.02,1.34,66,63
4352,-3.8,-23.8,-16.8,-0.005,-0.034,-1.204,-1.9,-15.9,0.0,0.0016,0.0048,0.0118,943,950,898,892,0.03,0.00,-2.55,1.29,0.4037,3,1,0,0.02,-0.05,-0.41,-0.11,-0.03,-0.02,1.35,66,63
4362,-7.4,-19.2,102.8,0.061,0.077,-1.201,-4.1,-12.8,0.0,0.0068,0.0161,-0.0990,774,1159,724,1034,0.03,0.00,-2.55,1.30,0.4046,3,1,0,0.01,-0.04,-0.36,-0.05,-0.02,-0.01,1.37,66,63
4372,-15.0,-22.5,-63.4,0.100,-0.109,-0.937,-6.1,-10.5,0.0,0.0086,0.0091,0.0585,1043,838,990,784,0.03,0.00,-2.55,1.30,0.4001,3,1,0,0.00,-0.04,-0.32,-0.01,-0.02,-0.01,1.37,67,63
4382,-23.7,-16.0,114.1,0.043,-0.083,-1.079,-6.4,-7.7,0.0,0.0138,0.0086,-0.1199,688,1182,683,1096,0.02,0.00,-2.54,1.30,0.3993,3,1,0,0.00,-0.03,-0.27,0.00,-0.02,-0.01,1.37,67,63
4392,-14.9,-36.8,-48.6,-0.019,-0.011,-1.138,-6.7,-7.6,0.0,0.0079,0.0263,0.0436,1058,880,958,745,0.02,0.00,-2.54,1.30,0.3981,3,1,0,0.00,-0.03,-0.28,0.00,-0.02,-0.01,1.39,68,63
4402,-11.0,-15.8,69.8,-0.125,-0.070,-0.851,-7.7,-8.9,0.0,0.0041,0.0130,-0.0842,753,1117,713,1028,0.02,-0.01,-2.53,1.30,0.3943,3,1,0,0.00,-0.04,-0.33,0.04,-0.02,-0.01,1.41,68,63
4412,-17.1,-8.8,8.1,0.055,-0.050,-1.204,-8.2,-9.5,0.0,0.0079,0.0005,-0.0096,931,930,883,858,0.02,-0.01,-2.54,1.31,0.3930,3,1,0,0.00,-0.04,-0.35,0.05,-0.02,-0.01,1.43,70,63
4423,-10.5,2.8,3.6,-0.096,-0.125,-1.180,-8.0,-8.5,0.0,0.0022,-0.0144,-0.0087,844,927,853,953,0.02,-0.01,-2.53,1.31,0.3898,3,1,0,0.00,-0.04,-0.33,0.06,-0.02,-0.01,1.45,69,63
4433,-19.6,-9.8,73.5,-0.009,-0.029,-1.102,-8.3,-8.0,0.0,0.0104,0.0075,-0.0691,776,1043,765,971,0.02,-0.01,-2.53,1.32,0.3869,3,1,0,0.00,-0.04,-0.32,0.08,-0.02,-0.01,1.46,72,63
4443,-8.6,-16.0,-58.8,0.123,-0.157,-0.861,-7.3,-8.3,0.0,0.0010,0.0047,0.0537,996,804,933,791,0.02,-0.01,-2.52,1.32,0.3825,3,1,0,0.00,-0.04,-0.33,0.06,-0.02,-0.01,1.48,71,63
4453,-13.1,-16.4,105.6,0.089,-0.022,-1.129,-8.0,-8.9,0.0,-0.0013,0.0113,-0.1087,712,1100,645,1065,0.02,-0.01,-2.52,1.33,0.3824,3,1,0,0.00,-0.04,-0.35,0.09,-0.02,-0.02,1.41,73,63
4463,-3.1,-23.7,-66.1,0.273,-0.147,-0.913,-7.0,-9.7,0.0,-0.0062,0.0080,0.0619,1023,745,981,780,0.02,-0.01,-2.52,1.33,0.3833,3,1,0,0.00,-0.04,-0.36,0.07,-0.02,-0.02,1.35,72,63
4473,-24.9,-30.4,81.9,0.255,-0.234,-0.879,-6.1,-11.9,0.0,0.0185,0.0156,-0.0871,688,1078,738,1056,0.01,-0.01,-2.51,1.33,0.3875,3,1,0,0.00,-0.05,-0.42,0.07,-0.01,-0.02,1.36,73,63
4483,-11.3,-38.4,-9.7,0.220,-0.035,-1.004,-5.3,-12.5,0.0,0.0018,0.0052,0.0167,927,833,956,868,0.01,-0.01,-2.51,1.33,0.3907,3,1,0,0.00,-0.05,-0.43,0.06,-0.01,-0.02,1.36,72,63
4493,-8.8,-34.5,19.1,0.224,0.041,-0.838,-4.0,-12.1,0.0,0.0044,0.0195,-0.0243,805,987,851,953,0.01,-0.01,-2.50,1.33,0.3922,3,1,0,0.00,-0.05,-0.42,0.05,-0.01,-0.02,1.38,72,63
4503,-0.9,-25.5,61.5,0.131,0.041,-1.012,-2.9,-10.6,0.0,-0.0022,0.0119,-0.0668,802,980,792,1016,0.01,-0.01,-2.50,1.33,0.3915,3,1,0,0.00,-0.05,-0.39,0.02,-0.01,-0.02,1.39,71,63
4513,-4.0,-2.4,-50.0,0.139,-0.090,-1.146,-1.2,-9.6,0.0,0.0022,-0.0133,0.0421,932,802,1011,866,0.01,-0.01,-2.50,1.33,0.3942,3,1,0,0.00,-0.05,-0.37,0.00,-0.01,-0.02,1.41,71,63
4523,-11.2,5.2,98.5,0.075,-0.051,-1.151,-0.9,-6.6,0.0,0.0100,-0.0149,-0.1038,663,1055,758,1111,0.01,-0.01,-2.49,1.34,0.3910,3,1,0,0.00,-0.04,-0.30,0.00,-0.01,-0.02,1.43,72,63
4534,4.8,-8.6,-76.1,0.043,-0.170,-1.301,-0.5,-4.6,0.0,-0.0096,0.0015,0.0706,1054,751,1012,781,0.00,-0.01,-2.49,1.34,0.3925,3,1,0,0.00,-0.03,-0.26,0.00,-0.01,-0.02,1.43,72,63
4544,10.8,-15.0,99.7,-0.043,0.141,-1.347,-0.1,-4.8,0.0,-0.0075,0.0133,-0.1090,726,1139,648,1083,0.00,-0.02,-2.48,1.35,0.3923,3,1,0,0.00,-0.03,-0.29,0.02,-0.01,-0.02,1.43,72,63
4554,5.1,-21.6,-32.7,0.087,-0.047,-1.075,-1.6,-5.1,0.0,-0.0076,0.0151,0.0309,1032,831,931,806,0.00,-0.02,-2.49,1.35,0.3928,3,1,0,0.00,-0.03,-0.29,0.02,-0.01,-0.02,1.42,71,63
4564,12.5,-6.2,31.2,0.123,-0.190,-0.957,-1.7,-4.8,0.0,-0.0146,-0.0016,-0.0366,843,978,750,1014,0.00,-0.02,-2.47,1.35,0.3907,3,1,0,0.00,-0.03,-0.32,0.03,-0.01,-0.02,1.42,71,63
4574,6.6,-21.6,67.2,0.085,-0.004,-0.696,-2.2,-6.2,0.0,-0.0112,0.0093,-0.0682,826,945,775,1031,0.01,-0.02,-2.48,1.35,0.3898,3,1,0,0.00,-0.04,-0.26,0.02,0.00,-0.02,1.42,71,63
4584,-6.6,-0.1,-33.1,0.180,0.020,-0.959,-1.3,-4.1,0.0,0.0097,-0.0244,0.0201,865,826,995,882,0.00,-0.02,-2.47,1.35,0.3886,3,1,0,0.00,-0.03,-0.21,0.03,0.00,-0.02,1.42,71,63
4594,-12.4,-9.2,120.0,0.043,0.072,-0.951,-2.3,-1.8,0.0,0.0099,0.0044,-0.1255,627,1099,710,1132,0.00,-0.02,-2.46,1.36,0.3886,3,1,0,0.00,-0.02,-0.14,0.03,0.00,-0.02,1.42,71,63
4604,4.8,8.4,-61.0,0.068,0.012,-0.776,-1.9,0.8,0.0,-0.0043,-0.0129,0.0552,959,758,1026,816,0.01,-0.02,-2.47,1.36,0.3875,3,1,0,0.00,-0.01,-0.13,0.06,0.00,-0.02,1.43,71,63
4614,-8.9,28.8,115.0,-0.070,0.120,-0.989,-2.9,-1.9,0.0,0.0063,-0.0363,-0.1219,552,1049,729,1169,0.00,-0.02,-2.45,1.36,0.3793,3,1,0,0.00,-0.02,-0.21,0.05,0.00,-0.02,1.51,71,63
4624,1.6,38.0,-42.7,-0.107,0.041,-1.196,-2.7,-4.5,0.0,-0.0047,-0.0457,0.0371,895,725,1026,849,0.01,-0.02,-2.46,1.37,0.3789,3,1,0,0.00,-0.03,-0.27,0.04,0.00,-0.02,1.48,71,63
4634,-13.0,33.8,54.1,-0.194,-0.084,-0.855,-1.5,-7.4,0.0,0.0152,-0.0372,-0.0711,632,959,830,1041,0.00,-0.02,-2.45,1.37,0.3745,3,1,0,0.00,-0.04,-0.34,0.02,0.00,-0.02,1.46,71,63
4645,-7.4,34.1,23.5,-0.083,-0.008,-0.845,-0.7,-9.2,0.0,0.0064,-0.0465,-0.0290,778,863,913,929,0.01,-0.01,-2.45,1.37,0.3773,3,1,0,0.00,-0.05,-0.38,0.00,0.00,-0.02,1.45,71,63
4655,7.6,24.5,-24.3,-0.338,0.095,-0.823,-1.4,-9.1,0.0,-0.0087,-0.0305,0.0154,865,806,908,900,0.00,-0.01,-2.44,1.38,0.3769,3,1,0,0.00,-0.05,-0.38,0.02,0.00,-0.02,1.45,71,63
4665,2.9,-6.5,91.3,-0.084,0.136,-0.691,-1.3,-8.3,0.0,-0.0033,0.0011,-0.0942,731,1061,684,1020,0.01,-0.01,-2.44,1.38,0.3790,3,1,0,0.00,-0.04,-0.35,0.01,0.00,-0.02,1.45,71,63
4675,8.8,-4.0,-62.5,0.060,-0.069,-0.778,-2.1,-7.9,0.0,-0.0112,-0.0069,0.0568,1008,746,939,786,0.00,-0.01,-2.44,1.38,0.3769,3,1,0,0.00,-0.04,-0.32,0.04,0.00,-0.02,1.46,71,63
4685,-4.1,0.3,111.9,-0.018,-0.125,-0.708,-2.6,-7.6,0.0,-0.0012,-0.0081,-0.1157,637,1069,663,1105,0.00,-0.01,-2.43,1.38,0.3761,3,1,0,0.00,-0.04,-0.32,0.05,0.00,-0.02,1.45,70,63
4695,5.7,-13.4,-50.5,0.139,-0.010,-1.006,-2.3,-6.4,0.0,-0.0084,0.0039,0.0448,993,756,955,789,0.00,-0.01,-2.43,1.38,0.3786,3,1,0,0.00,-0.04,-0.28,0.05,0.00,-0.02,1.41,70,63
4705,2.2,-9.3,73.6,0.001,-0.031,-0.708,-2.8,-6.2,0.0,-0.0061,-0.0012,-0.0907,714,1034,695,1062,0.00,-0.01,-2.42,1.39,0.3801,3,1,0,0.00,-0.03,-0.28,0.07,0.00,-0.02,1.38,70,63
4715,-7.5,-0.4,6.0,0.013,-0.020,-1.369,-2.8,-4.9,0.0,0.0060,-0.0032,-0.0055,882,903,900,877,0.00,-0.01,-2.43,1.38,0.3878,3,1,0,0.00,-0.03,-0.25,0.08,0.00,-0.02,1.37,70,63
4725,0.7,10.9,0.7,0.034,-0.243,-1.061,-4.8,-3.8,0.0,-0.0057,-0.0180,-0.0065,868,885,868,982,0.00,-0.01,-2.41,1.38,0.3932,3,1,0,-0.01,-0.03,-0.23,0.13,0.00,-0.02,1.36,70,63
4735,-4.3,-9.2,75.7,-0.092,-0.074,-0.942,-5.5,-2.2,0.0,-0.0029,0.0077,-0.0790,804,1060,725,1030,0.00,-0.02,-2.42,1.38,0.3953,3,1,0,-0.01,-0.02,-0.20,0.16,0.00,-0.02,1.36,70,63
4746,7.3,-15.9,-60.3,0.055,0.010,-0.722,-5.5,-2.5,0.0,-0.0132,0.0103,0.0544,1019,803,956,848,0.00,-0.02,-2.41,1.38,0.3962,3,1,0,-0.01,-0.02,-0.20,0.17,0.00,-0.02,1.35,69,63
4756,-5.6,-32.5,106.6,0.011,0.079,-0.795,-4.8,-5.3,0.0,-0.0036,0.0145,-0.1134,730,1145,661,1104,0.00,-0.02,-2.40,1.38,0.3981,3,1,0,-0.01,-0.03,-0.27,0.15,0.00,-0.02,1.34,69,63
4766,14.4,-20.2,-68.4,0.061,0.111,-0.841,-3.2,-7.8,0.0,-0.0175,-0.0033,0.0640,1035,732,1040,856,0.00,-0.02,-2.41,1.38,0.4011,3,1,0,-0.01,-0.04,-0.33,0.12,0.00,-0.02,1.33,69,63
4776,-0.2,-5.9,82.8,0.128,0.156,-0.987,-2.9,-11.1,0.0,-0.0029,-0.0081,-0.0887,705,1058,774,1136,0.00,-0.02,-2.39,1.37,0.4025,3,1,0,-0.01,-0.05,-0.41,0.12,0.00,-0.02,1.33,69,63
4786,7.2,17.7,-8.9,0.103,0.236,-1.275,-1.9,-11.8,0.0,-0.0068,-0.0472,0.0179,885,791,1038,996,0.00,-0.01,-2.40,1.37,0.4073,3,1,0,0.00,-0.06,-0.42,0.10,0.00,-0.02,1.33,69,63
4796,-18.0,-0.5,16.0,0.057,0.171,-1.229,-2.0,-12.1,0.0,0.0157,-0.0147,-0.0220,800,979,957,991,0.00,-0.02,-2.39,1.37,0.4095,3,1,0,0.00,-0.06,-0.43,0.12,0.00,-0.02,1.33,69,63
4806,-22.5,-13.4,81.5,0.174,0.176,-1.319,-2.1,-11.6,0.0,0.0206,-0.0036,-0.0750,748,1110,840,1045,0.00,-0.02,-2.39,1.37,0.4116,3,1,0,-0.01,-0.06,-0.42,0.12,0.00,-0.02,1.33,69,63
4816,-5.3,-6.5,-49.0,0.089,-0.054,-1.119,-1.2,-10.9,0.0,0.0038,-0.0075,0.0430,1002,865,1009,864,0.00,-0.02,-2.38,1.36,0.4113,3,1,0,0.00,-0.05,-0.41,0.10,0.01,-0.02,1.32,70,63
4826,-18.5,-7.7,113.0,-0.011,0.118,-1.504,-0.3,-11.3,0.0,0.0163,0.0105,-0.1181,707,1215,729,1113,0.00,-0.02,-2.38,1.36,0.4145,3,1,0,0.00,-0.06,-0.43,0.09,0.01,-0.02,1.31,69,63
4836,-11.2,-22.8,-67.9,0.099,-0.193,-0.933,1.2,-10.8,0.0,0.0122,0.0088,0.0618,1068,865,1052,777,0.00,-0.02,-2.38,1.36,0.4143,3,1,0,0.00,-0.05,-0.41,0.05,0.01,-0.02,1.30,69,63
4847,-15.4,-24.4,99.6,0.031,-0.061,-0.853,1.8,-11.6,0.0,0.0170,0.0096,-0.1057,713,1203,742,1088,0.00,-0.02,-2.37,1.35,0.4120,3,1,0,0.00,-0.06,-0.43,0.05,0.01,-0.02,1.30,69,63
4857,-1.0,-37.4,-26.4,0.051,-0.074,-1.134,2.3,-11.6,0.0,0.0018,0.0205,0.0238,1028,911,973,860,0.00,-0.02,-2.37,1.35,0.4155,3,1,0,0.00,-0.06,-0.43,0.03,0.01,-0.02,1.29,69,63
4867,3.4,-34.3,29.8,0.134,-0.086,-0.888,2.1,-13.1,0.0,-0.0015,0.0182,-0.0360,885,1046,837,1002,0.00,-0.02,-2.36,1.35,0.4154,3,1,0,0.00,-0.06,-0.46,0.05,0.01,-0.02,1.28,69,63
4877,-1.5,-31.4,60.7,0.080,0.015,-0.688,2.4,-12.9,0.0,0.0022,0.0030,-0.0518,842,1046,838,1026,0.00,-0.02,-2.36,1.34,0.4128,3,1,0,0.00,-0.06,-0.46,0.04,0.01,-0.02,1.28,69,63
4887,11.9,-15.4,-39.9,0.084,0.059,-1.030,2.1,-12.2,0.0,-0.0101,0.0000,0.0337,996,877,971,936,0.00,-0.02,-2.36,1.34,0.4165,3,1,0,0.00,-0.06,-0.45,0.05,0.01,-0.02,1.27,69,63
4897,10.3,-1.7,111.1,0.022,-0.032,-0.758,2.0,-11.6,0.0,-0.0069,-0.0122,-0.1121,724,1121,744,1194,0.00,-0.02,-2.35,1.34,0.4170,3,1,0,0.00,-0.06,-0.44,0.04,0.01,-0.02,1.26,69,63
4907,13.2,7.4,-74.6,0.045,-0.166,-0.913,3.4,-10.7,0.0,-0.0100,-0.0214,0.0683,1032,758,1123,878,0.00,-0.02,-2.35,1.33,0.4182,3,1,0,0.00,-0.06,-0.42,0.01,0.02,-0.02,1.25,69,63
4917,6.5,13.1,101.9,-0.048,-0.051,-0.697,3.1,-10.0,0.0,-0.0035,-0.0264,-0.1082,676,1077,798,1248,0.00,-0.02,-2.34,1.33,0.4193,3,1,0,0.00,-0.06,-0.41,0.01,0.02,-0.02,1.25,70,63
4927,18.7,15.8,-43.7,-0.032,0.028,-0.940,2.3,-9.5,0.0,-0.0150,-0.0302,0.0465,1012,779,1069,950,0.00,-0.02,-2.35,1.32,0.4205,3,1,0,0.00,-0.06,-0.40,0.03,0.02,-0.02,1.25,70,63
4937,-5.5,6.8,48.8,-0.061,-0.005,-1.142,1.8,-9.3,0.0,0.0037,-0.0217,-0.0606,789,1041,877,1126,0.00,-0.02,-2.33,1.32,0.4237,3,1,0,0.00,-0.06,-0.41,0.05,0.02,-0.02,1.24,71,63
4947,1.4,-3.4,33.3,0.006,0.082,-0.842,0.2,-9.7,0.0,-0.0013,-0.0095,-0.0396,903,967,934,1021,0.00,-0.02,-2.34,1.32,0.4226,3,1,0,0.00,-0.06,-0.42,0.08,0.02,-0.02,1.23,71,63
4958,-7.1,13.3,-8.6,0.057,-0.132,-0.894,0.0,-10.2,0.0,0.0075,-0.0216,-0.0072,890,946,1001,999,0.00,-0.02,-2.33,1.31,0.4241,3,1,0,0.00,-0.06,-0.44,0.09,0.02,-0.02,1.23,71,63
4968,3.4,8.6,94.7,-0.086,-0.165,-1.301,-0.9,-11.8,0.0,-0.0045,-0.0237,-0.1010,768,1079,818,1202,0.00,-0.03,-2.32,1.31,0.4280,3,1,0,0.00,-0.07,-0.48,0.10,0.02,-0.02,1.23,71,63
4978,18.9,4.9,-54.2,-0.109,-0.030,-1.227,0.0,-11.6,0.0,-0.0192,-0.0198,0.0478,1013,825,1083,954,0.00,-0.03,-2.32,1.30,0.4291,3,1,0,0.00,-0.07,-0.47,0.08,0.02,-0.03,1.24,71,63
4988,9.1,5.6,108.3,-0.190,-0.099,-1.090,0.2,-10.6,0.0,-0.0092,-0.0195,-0.1148,713,1130,774,1238,0.00,-0.03,-2.31,1.30,0.4267,3,1,0,0.00,-0.06,-0.45,0.07,0.03,-0.03,1.25,71,63
4998,-1.0,11.8,-52.5,0.095,-0.184,-1.401,-0.2,-9.9,0.0,-0.0005,-0.0252,0.0472,1029,816,1089,934,0.00,-0.03,-2.31,1.30,0.4282,3,1,0,0.00,-0.06,-0.43,0.08,0.03,-0.03,1.24,71,63
5008,-13.8,-0.2,65.0,0.179,-0.144,-1.021,0.1,-10.6,0.0,0.0082,-0.0209,-0.0806,751,1087,861,1135,0.00,-0.03,-2.30,1.29,0.4238,3,1,0,0.00,-0.06,-0.45,0.08,0.03,-0.03,1.24,71,63
5018,-6.9,-12.3,13.6,0.160,0.110,-1.138,0.6,-10.8,0.0,0.0074,-0.0017,-0.0201,920,978,984,957,0.00,-0.03,-2.31,1.29,0.4243,3,1,0,0.00,-0.06,-0.46,0.07,0.03,-0.03,1.23,71,63
5028,-11.5,13.3,-9.2,0.057,-0.055,-1.129,0.8,-11.8,0.0,0.0121,-0.0285,0.0026,882,948,1029,997,0.00,-0.03,-2.29,1.29,0.4267,3,1,0,0.00,-0.07,-0.49,0.07,0.03,-0.03,1.22,71,63
5038,0.7,11.3,77.1,0.137,-0.017,-0.855,1.2,-10.9,0.0,0.0005,-0.0249,-0.0792,779,1053,870,1127,0.00,-0.03,-2.29,1.28,0.4231,3,1,0,0.00,-0.07,-0.46,0.06,0.03,-0.03,1.22,71,63
5048,0.0,12.6,-49.6,0.067,-0.038,-1.108,1.9,-10.7,0.0,0.0017,-0.0267,0.0430,1003,860,1073,929,0.00,-0.03,-2.29,1.28,0.4279,3,1,0,0.00,-0.07,-0.46,0.05,0.03,-0.03,1.23,71,63
5058,1.2,18.6,122.2,-0.016,0.137,-1.219,2.6,-10.1,0.0,-0.0009,-0.0322,-0.1301,663,1151,781,1277,0.00,-0.03,-2.28,1.28,0.4288,3,1,0,0.00,-0.06,-0.44,0.04,0.03,-0.03,1.23,71,63
5069,1.9,8.8,-49.7,0.038,0.189,-1.176,2.8,-10.0,0.0,0.0034,-0.0244,0.0453,1002,846,1116,919,0.00,-0.03,-2.28,1.27,0.4302,3,1,0,0.00,-0.06,-0.44,0.03,0.04,-0.03,1.23,71,63
5079,0.2,-14.4,83.6,-0.046,0.132,-1.044,2.3,-10.3,0.0,0.0035,0.0009,-0.0937,736,1179,780,1141,-0.01,-0.03,-2.27,1.27,0.4239,3,1,0,0.00,-0.06,-0.45,0.06,0.04,-0.03,1.23,71,63
5089,6.6,3.3,-5.0,-0.045,0.048,-1.550,2.6,-9.5,0.0,-0.0042,-0.0142,0.0008,966,929,986,982,0.00,-0.03,-2.28,1.27,0.4275,3,1,0,0.00,-0.06,-0.44,0.04,0.04,-0.03,1.22,71,63
5099,5.2,15.9,3.3,-0.048,-0.145,-1.156,2.5,-8.7,0.0,-0.0027,-0.0281,-0.0101,875,972,944,1060,0.00,-0.03,-2.26,1.26,0.4260,3,1,0,0.00,-0.06,-0.42,0.04,0.04,-0.03,1.22,71,63
5109,11.8,4.3,74.4,0.004,0.022,-1.084,2.2,-8.2,0.0,-0.0081,-0.0148,-0.0735,820,1044,846,1119,0.00,-0.03,-2.26,1.26,0.4231,3,1,0,0.00,-0.06,-0.40,0.04,0.04,-0.03,1.21,71,63
5119,8.9,14.8,-65.0,0.008,0.074,-1.211,2.6,-7.3,0.0,-0.0065,-0.0256,0.0581,1017,815,1096,925,0.00,-0.03,-2.26,1.26,0.4261,3,1,0,0.00,-0.05,-0.38,0.03,0.04,-0.03,1.21,71,63
5129,-4.5,-3.1,122.4,0.000,0.122,-1.138,2.4,-5.9,0.0,0.0040,-0.0064,-0.1238,720,1182,750,1194,0.00,-0.03,-2.25,1.26,0.4252,3,1,0,0.00,-0.05,-0.34,0.03,0.04,-0.03,1.20,71,63
5139,-2.7,-6.7,-58.0,0.097,-0.233,-1.015,2.4,-5.5,0.0,0.0022,0.0047,0.0526,1091,882,1041,844,0.00,-0.03,-2.25,1.25,0.4268,3,1,0,0.00,-0.05,-0.34,0.03,0.04,-0.03,1.21,72,63
5149,1.4,15.3,102.1,-0.052,-0.132,-0.959,2.0,-4.7,0.0,0.0004,-0.0235,-0.1090,713,1155,749,1216,0.00,-0.03,-2.24,1.25,0.4236,3,1,0,0.00,-0.05,-0.32,0.04,0.04,-0.03,1.21,72,63
5159,12.2,30.5,-14.9,-0.225,-0.067,-1.449,1.5,-3.8,0.0,-0.0096,-0.0357,0.0116,980,873,1048,965,0.00,-0.03,-2.24,1.25,0.4278,3,1,0,0.00,-0.04,-0.29,0.04,0.04,-0.03,1.21,72,63
5170,10.0,23.3,26.6,-0.312,-0.258,-1.008,1.7,-2.8,0.0,-0.0085,-0.0296,-0.0336,829,1001,897,1109,0.00,-0.03,-2.23,1.25,0.4241,3,1,0,0.00,-0.04,-0.26,0.03,0.05,-0.03,1.21,72,63
5180,15.1,20.4,56.4,0.033,-0.071,-1.411,2.0,-3.7,0.0,-0.0133,-0.0314,-0.0555,827,971,899,1137,0.00,-0.03,-2.23,1.24,0.4237,3,1,0,0.00,-0.04,-0.27,0.02,0.05,-0.03,1.21,72,63
5190,-5.1,9.3,-34.8,0.111,-0.065,-1.241,2.9,-2.8,0.0,0.0079,-0.0155,0.0277,922,887,1038,977,0.00,-0.03,-2.22,1.24,0.4223,3,1,0,0.00,-0.04,-0.24,0.00,0.05,-0.03,1.20,72,63
5200,-2.1,-8.7,106.6,0.111,0.065,-1.166,2.6,-1.5,0.0,0.0017,-0.0005,-0.1092,749,1148,761,1162,0.00,-0.03,-2.22,1.24,0.4220,3,1,0,0.00,-0.03,-0.21,0.01,0.05,-0.03,1.21,72,63
5210,1.9,2.3,-75.1,0.082,-0.049,-1.287,3.3,-1.1,0.0,0.0013,-0.0071,0.0672,1057,829,1090,855,0.00,-0.03,-2.22,1.24,0.4233,3,1,0,0.00,-0.03,-0.19,0.00,0.05,-0.03,1.21,72,63
5220,-4.3,8.4,104.7,-0.178,-0.104,-1.110,3.4,-0.8,0.0,0.0076,-0.0126,-0.1119,713,1160,773,1161,0.00,-0.02,-2.20,1.24,0.4203,3,1,0,0.00,-0.03,-0.18,0.00,0.05,-0.03,1.21,72,63
5230,-2.8,9.4,-37.1,0.050,-0.212,-1.302,3.3,-1.7,0.0,0.0041,-0.0019,0.0390,1049,888,1034,862,0.00,-0.02,-2.21,1.23,0.4236,3,1,0,0.00,-0.03,-0.20,-0.01,0.05,-0.03,1.21,73,63
5240,-20.0,20.1,60.5,0.119,-0.231,-0.964,3.0,-2.9,0.0,0.0230,-0.0266,-0.0677,733,1084,856,1140,0.00,-0.02,-2.19,1.23,0.4209,3,1,0,0.00,-0.03,-0.21,0.00,0.05,-0.03,1.20,73,63
5250,-4.0,4.8,41.4,-0.026,0.159,-1.112,2.8,-2.4,0.0,0.0087,-0.0013,-0.0364,888,1029,903,978,0.00,-0.02,-2.20,1.23,0.4190,3,1,0,0.00,-0.03,-0.21,0.00,0.05,-0.03,1.20,73,63
5260,-1.6,13.6,-10.8,-0.085,-0.087,-1.022,2.5,-3.2,0.0,0.0040,-0.0204,0.0035,929,979,917,977,0.00,-0.02,-2.19,1.23,0.4196,3,1,0,0.00,-0.03,-0.25,0.00,0.05,-0.03,1.21,73,63
5271,4.2,24.3,86.7,0.049,-0.042,-1.171,2.9,-5.3,0.0,-0.0014,-0.0332,-0.0939,741,1089,822,1145,0.00,-0.02,-2.19,1.23,0.4188,3,1,0,0.00,-0.04,-0.28,0.00,0.05,-0.03,1.22,73,63
5281,9.5,22.4,-58.1,-0.031,0.010,-1.007,2.4,-6.9,0.0,-0.0057,-0.0313,0.0490,984,829,1070,919,0.00,-0.02,-2.18,1.23,0.4195,3,1,0,0.00,-0.04,-0.29,0.02,0.05,-0.03,1.22,74,63
5291,2.1,25.2,107.3,0.012,0.114,-1.134,1.6,-7.8,0.0,-0.0006,-0.0365,-0.1147,671,1114,781,1232,0.00,-0.02,-2.17,1.23,0.4191,3,1,0,0.00,-0.04,-0.30,0.02,0.05,-0.04,1.21,73,63
5301,7.7,-8.3,-51.4,0.111,0.175,-1.156,1.5,-8.3,0.0,-0.0052,-0.0066,0.0492,1042,829,1058,880,0.00,-0.02,-2.18,1.22,0.4203,3,1,0,0.00,-0.05,-0.28,0.02,0.05,-0.04,1.20,74,63
5311,7.6,-31.5,78.3,0.043,0.302,-1.210,1.1,-5.5,0.0,-0.0066,0.0227,-0.0857,813,1175,730,1095,0.00,-0.02,-2.16,1.22,0.4208,3,1,0,0.00,-0.04,-0.23,0.03,0.05,-0.04,1.20,74,63
5321,0.8,-35.9,14.8,0.081,0.084,-1.103,0.9,-3.1,0.0,0.0000,0.0294,-0.0222,1011,1032,862,921,0.00,-0.02,-2.17,1.22,0.4225,3,1,0,0.00,-0.03,-0.17,0.03,0.05,-0.04,1.21,74,63
5331,-2.3,-19.4,14.7,0.128,-0.164,-0.976,1.2,-2.2,0.0,0.0036,0.0158,-0.0261,917,1060,858,974,0.00,-0.02,-2.17,1.22,0.4203,3,1,0,0.00,-0.02,-0.15,0.03,0.05,-0.04,1.21,73,63
5341,-2.4,-30.5,90.5,-0.064,-0.154,-0.910,1.1,-0.5,0.0,0.0034,0.0266,-0.0979,839,1170,734,1054,0.00,-0.02,-2.17,1.22,0.4189,3,1,0,0.00,-0.02,-0.10,0.02,0.05,-0.04,1.21,73,63
5351,18.3,-18.8,-41.1,0.081,-0.097,-0.845,1.1,0.1,0.0,-0.0165,0.0087,0.0253,1043,885,948,914,0.00,-0.02,-2.16,1.22,0.4180,3,1,0,0.00,-0.02,-0.08,0.02,0.05,-0.04,1.21,73,63
5361,0.8,-19.9,124.1,-0.059,0.115,-1.116,1.8,1.4,0.0,0.0008,0.0180,-0.1316,718,1217,693,1165,0.00,-0.02,-2.15,1.22,0.4182,3,1,0,0.00,-0.01,-0.05,0.01,0.05,-0.04,1.21,73,63
5372,18.6,-29.4,-48.4,0.075,0.026,-0.805,1.2,2.9,0.0,-0.0225,0.0239,0.0421,1105,856,951,875,0.00,-0.02,-2.15,1.22,0.4176,3,1,0,0.00,-0.01,-0.01,0.01,0.05,-0.04,1.21,73,63
5382,6.8,-0.2,93.2,-0.085,0.001,-0.767,1.9,2.9,0.0,-0.0051,-0.0002,-0.1008,735,1146,703,1182,0.00,-0.02,-2.14,1.22,0.4147,3,1,0,0.00,0.00,-0.01,0.00,0.05,-0.04,1.21,74,63
5392,7.0,1.0,-5.4,-0.093,-0.029,-1.020,1.3,1.4,0.0,-0.0078,-0.0093,0.0084,967,879,986,967,0.00,-0.01,-2.14,1.22,0.4191,3,1,0,0.00,-0.01,-0.03,0.01,0.05,-0.04,1.22,73,63
5402,4.7,-5.3,16.8,0.017,0.053,-0.885,1.3,0.1,0.0,-0.0027,-0.0003,-0.0280,840,1004,888,1054,0.00,-0.01,-2.13,1.22,0.4172,3,1,0,0.00,-0.01,-0.05,0.02,0.05,-0.04,1.21,73,63
5412,-1.3,-0.8,74.5,-0.003,-0.116,-0.504,0.1,-0.6,0.0,0.0014,-0.0032,-0.0821,805,1042,828,1078,0.00,-0.01,-2.13,1.22,0.4131,3,1,0,0.00,-0.01,-0.06,0.03,0.05,-0.04,1.21,73,63
5422,14.6,27.7,-39.8,-0.012,-0.100,-0.866,-0.3,-1.4,0.0,-0.0206,-0.0317,0.0260,970,803,996,1001,0.00,-0.01,-2.12,1.22,0.4151,3,1,0,0.00,-0.01,-0.07,0.04,0.05,-0.04,1.21,74,63
5432,-3.9,7.5,130.4,-0.041,0.045,-0.787,-0.6,-1.5,0.0,0.0024,-0.0126,-0.1363,666,1168,716,1212,0.00,-0.01,-2.12,1.22,0.4143,3,1,0,0.00,-0.01,-0.06,0.05,0.05,-0.04,1.21,73,63
5442,5.5,-2.7,-54.4,0.025,0.036,-0.699,-0.4,-1.7,0.0,-0.0062,-0.0024,0.0466,1026,829,1034,863,0.00,-0.01,-2.12,1.22,0.4128,3,1,0,0.00,-0.01,-0.05,0.04,0.05,-0.04,1.21,73,63
5452,-9.5,22.9,115.4,-0.105,-0.177,-0.745,0.0,-1.0,0.0,0.0076,-0.0255,-0.1315,625,1151,750,1218,0.00,0.00,-2.10,1.22,0.4119,3,1,0,0.00,-0.01,-0.03,0.02,0.05,-0.04,1.21,72,63
5462,16.6,22.1,-18.7,-0.133,-0.040,-0.994,0.0,-1.0,0.0,-0.0168,-0.0267,0.0109,958,820,1027,959,0.00,0.00,-2.11,1.22,0.4145,3,1,0,0.00,0.00,-0.01,0.02,0.05,-0.04,1.21,73,63
5473,19.9,35.7,45.2,-0.204,0.024,-0.888,0.3,-1.6,0.0,-0.0147,-0.0398,-0.0653,748,987,857,1169,0.00,0.00,-2.09,1.22,0.4141,3,1,0,0.00,-0.01,-0.01,0.01,0.05,-0.04,1.21,73,63
5483,21.5,41.5,60.2,0.026,0.056,-1.085,-0.1,-1.7,0.0,-0.0204,-0.0499,-0.0600,781,912,905,1164,0.00,0.00,-2.09,1.22,0.4141,3,1,0,0.00,0.00,0.00,0.01,0.05,-0.04,1.22,74,63
5493,-7.7,25.7,-27.4,0.024,0.151,-1.269,-0.8,-1.5,0.0,0.0068,-0.0309,0.0195,869,872,1035,985,0.00,0.00,-2.09,1.22,0.4141,3,1,0,0.00,0.00,0.01,0.03,0.05,-0.04,1.22,73,63
5503,6.2,16.2,111.0,0.090,0.193,-1.087,-0.5,-0.1,0.0,-0.0038,-0.0187,-0.1134,695,1109,751,1194,0.00,0.00,-2.08,1.22,0.4124,3,1,0,0.00,0.00,0.04,0.02,0.05,-0.04,1.22,74,63
5513,2.8,36.7,-66.2,-0.035,0.029,-1.219,-1.1,1.0,0.0,-0.0041,-0.0393,0.0583,987,794,1096,870,0.00,0.00,-2.08,1.22,0.4123,3,1,0,0.00,0.00,0.08,0.03,0.05,-0.04,1.22,73,63
5523,-5.0,31.2,107.5,-0.219,0.087,-1.252,-0.7,2.1,0.0,0.0041,-0.0327,-0.1156,649,1112,785,1195,0.00,0.00,-2.07,1.22,0.4114,3,1,0,0.00,0.00,0.11,0.02,0.05,-0.04,1.22,73,63
5533,-2.7,17.6,-34.9,-0.029,-0.094,-1.251,-0.4,1.0,0.0,0.0021,-0.0087,0.0336,984,865,1025,890,0.00,0.00,-2.07,1.22,0.4143,3,1,0,0.00,0.00,0.09,0.00,0.05,-0.04,1.23,73,63
5543,-17.4,8.9,71.8,0.071,-0.063,-1.148,0.0,0.4,0.0,0.0172,-0.0120,-0.0799,722,1098,792,1130,0.00,0.00,-2.06,1.22,0.4115,3,1,0,0.00,0.00,0.08,0.00,0.05,-0.04,1.24,74,63
5553,-9.1,-11.2,37.5,0.035,0.149,-1.176,0.0,-0.1,0.0,0.0094,0.0087,-0.0336,873,1036,876,967,0.00,0.00,-2.06,1.22,0.4129,3,1,0,0.00,0.00,0.07,0.00,0.05,-0.04,1.24,73,63
5563,-7.3,0.8,4.6,-0.087,0.012,-0.927,0.2,-0.2,0.0,0.0074,-0.0012,-0.0246,867,988,899,965,0.00,0.00,-2.05,1.22,0.4085,3,1,0,0.00,0.00,0.07,0.00,0.05,-0.04,1.24,73,63
5573,-1.8,-1.4,91.4,0.015,-0.026,-1.179,0.7,-0.4,0.0,0.0024,-0.0025,-0.0995,746,1118,758,1115,0.00,0.00,-2.05,1.22,0.4109,3,1,0,0.00,0.00,0.07,-0.01,0.05,-0.04,1.24,73,63
5583,17.1,4.3,-50.3,-0.099,-0.090,-0.807,0.5,-0.6,0.0,-0.0147,-0.0105,0.0386,1009,807,993,902,0.00,0.00,-2.04,1.22,0.4074,3,1,0,0.00,0.00,0.08,-0.01,0.05,-0.04,1.25,73,63
5593,15.9,-4.3,117.0,-0.047,0.074,-0.972,0.4,-1.3,0.0,-0.0151,-0.0011,-0.1260,704,1134,670,1198,0.00,0.00,-2.03,1.22,0.4067,3,1,0,0.00,0.00,0.06,-0.02,0.05,-0.05,1.25,73,63
5604,13.0,12.5,-53.5,0.102,-0.157,-0.852,-0.1,-2.0,0.0,-0.0133,-0.0182,0.0452,998,761,1033,908,0.00,0.00,-2.03,1.22,0.4060,3,1,0,0.00,0.00,0.06,-0.01,0.05,-0.05,1.25,73,63
5614,-4.3,-5.7,84.2,0.176,-0.041,-0.924,0.1,-1.5,0.0,-0.0002,-0.0138,-0.1003,707,1085,758,1139,0.00,0.00,-2.02,1.22,0.4046,3,1,0,0.00,0.00,0.08,-0.02,0.05,-0.05,1.26,74,63
5624,11.3,-10.3,10.0,0.112,0.083,-0.780,-1.1,-1.2,0.0,-0.0127,0.0055,-0.0183,920,879,915,974,0.00,0.00,-2.02,1.23,0.4045,3,1,0,0.00,0.00,0.09,0.00,0.05,-0.05,1.26,74,63
5634,-0.2,8.8,8.4,0.156,-0.032,-1.028,-1.2,-0.7,0.0,-0.0006,-0.0215,-0.0271,834,934,913,1018,0.00,0.01,-2.01,1.23,0.4058,3,1,0,0.00,0.00,0.11,0.00,0.05,-0.05,1.26,74,63
5644,5.5,13.5,76.3,0.059,-0.103,-0.767,-2.4,-0.7,0.0,-0.0134,-0.0271,-0.0764,760,950,821,1145,0.00,0.01,-2.01,1.23,0.4028,3,1,0,0.00,0.00,0.12,0.02,0.05,-0.05,1.26,74,63
5654,17.1,33.9,-42.7,-0.071,-0.029,-0.967,-3.4,-0.4,0.0,-0.0203,-0.0394,0.0330,940,754,1020,978,0.00,0.01,-2.00,1.23,0.4048,3,1,0,0.00,0.01,0.12,0.05,0.04,-0.05,1.25,73,63
5664,17.2,38.8,113.6,-0.149,0.192,-1.327,-3.9,-1.0,0.0,-0.0216,-0.0444,-0.1218,653,1035,741,1275,0.00,0.01,-2.00,1.23,0.4066,3,1,0,0.00,0.00,0.11,0.05,0.04,-0.05,1.26,73,63
5674,-1.4,24.3,-53.4,-0.006,-0.104,-1.060,-3.9,-3.2,0.0,-0.0027,-0.0313,0.0450,985,770,1050,909,0.00,0.01,-2.01,1.23,0.4078,3,1,0,0.00,0.00,0.06,0.05,0.04,-0.05,1.26,73,63
5684,-5.4,13.4,100.2,-0.054,-0.042,-1.003,-3.9,-4.6,0.0,0.0010,-0.0199,-0.1183,658,1109,737,1180,0.00,0.01,-1.99,1.23,0.4039,3,1,0,0.00,0.00,0.03,0.04,0.04,-0.05,1.28,73,63
5695,4.2,5.7,-1.6,-0.103,-0.009,-1.233,-3.6,-5.0,0.0,-0.0081,-0.0145,-0.0068,951,912,922,918,0.01,0.01,-2.00,1.24,0.4064,3,1,0,0.00,0.00,0.02,0.04,0.04,-0.05,1.29,73,63
5705,-1.3,6.1,23.1,-0.172,-0.113,-0.890,-3.6,-5.6,0.0,-0.0014,-0.0130,-0.0357,808,1014,834,1029,0.00,0.01,-1.99,1.24,0.4041,3,1,0,0.00,0.00,0.01,0.04,0.04,-0.05,1.30,73,63
5715,3.6,2.5,76.8,-0.050,-0.030,-0.713,-3.5,-4.6,0.0,-0.0074,-0.0108,-0.0854,778,1028,784,1066,0.01,0.01,-1.99,1.24,0.4002,3,1,0,0.00,0.00,0.04,0.03,0.04,-0.05,1.30,73,63
5725,23.5,12.4,-46.3,-0.110,-0.065,-0.867,-3.1,-4.0,0.0,-0.0280,-0.0183,0.0344,980,798,923,952,0.01,0.01,-1.98,1.24,0.3999,3,1,0,0.00,0.00,0.06,0.03,0.04,-0.05,1.32,73,63
5735,15.5,15.6,117.8,-0.021,0.061,-0.873,-2.4,-3.7,0.0,-0.0198,-0.0216,-0.1251,675,1068,678,1215,0.01,0.01,-1.98,1.25,0.3975,3,1,0,0.00,0.00,0.07,0.01,0.04,-0.05,1.34,73,63
5745,11.3,14.5,-60.3,0.065,0.006,-0.621,-1.7,-3.8,0.0,-0.0134,-0.0221,0.0516,964,707,1034,888,0.01,0.01,-1.98,1.25,0.3919,3,1,0,0.00,0.00,0.08,0.00,0.04,-0.05,1.32,74,63
5755,-2.1,8.0,111.0,-0.096,0.062,-0.673,-0.6,-4.3,0.0,0.0023,-0.0222,-0.1271,608,1098,701,1173,0.01,0.01,-1.96,1.25,0.3900,3,1,0,0.00,0.00,0.06,-0.03,0.04,-0.05,1.30,75,63
5765,8.4,13.4,-30.4,-0.019,0.128,-1.137,-0.1,-4.7,0.0,-0.0069,-0.0217,0.0254,926,794,993,880,0.01,0.01,-1.97,1.25,0.3918,3,1,0,0.00,0.00,0.05,-0.04,0.04,-0.05,1.29,74,63
5775,-4.6,20.2,40.2,-0.058,-0.023,-0.912,-0.2,-4.9,0.0,0.0041,-0.0289,-0.0490,719,982,856,1056,0.00,0.01,-1.96,1.26,0.3943,3,1,0,0.00,0.00,0.04,-0.04,0.04,-0.05,1.28,74,63
5785,-6.8,11.4,47.0,0.010,-0.025,-0.999,0.2,-4.3,0.0,0.0098,-0.0111,-0.0402,788,977,867,982,0.00,0.01,-1.96,1.26,0.3946,3,1,0,0.01,0.00,0.06,-0.05,0.04,-0.05,1.28,74,63
5795,0.7,-1.3,-19.7,-0.079,0.002,-1.121,0.5,-3.3,0.0,-0.0010,-0.0014,0.0079,928,915,900,897,0.00,0.01,-1.95,1.26,0.3981,3,1,0,0.01,0.00,0.08,-0.06,0.04,-0.05,1.29,74,63
5806,-9.3,-16.2,102.2,0.068,0.065,-1.214,-0.1,-1.9,0.0,0.0090,0.0105,-0.1111,735,1167,686,1053,0.00,0.01,-1.95,1.26,0.3983,3,1,0,0.00,0.01,0.11,-0.04,0.04,-0.05,1.29,74,63
5816,-1.7,-30.3,-51.4,0.153,-0.069,-0.879,0.0,-2.1,0.0,-0.0009,0.0272,0.0404,1038,882,932,782,0.00,0.01,-1.96,1.26,0.3973,3,1,0,0.01,0.01,0.12,-0.05,0.04,-0.05,1.28,74,63
5826,-7.1,-32.8,124.0,0.005,0.069,-0.933,-0.3,-2.9,0.0,0.0080,0.0324,-0.1346,703,1248,605,1080,0.00,0.01,-1.95,1.26,0.3975,3,1,0,0.00,0.00,0.09,-0.04,0.04,-0.05,1.28,74,63
5836,7.8,-30.5,-41.2,0.070,-0.131,-0.994,-0.5,-4.3,0.0,-0.0086,0.0225,0.0322,1031,862,930,824,0.01,0.01,-1.96,1.26,0.3989,3,1,0,0.00,0.00,0.07,-0.04,0.04,-0.05,1.31,74,63
5846,-7.8,-18.5,70.6,0.179,-0.286,-0.825,-0.6,-6.5,0.0,0.0079,-0.0024,-0.0906,716,1088,755,1068,0.01,0.01,-1.95,1.27,0.3964,3,1,0,0.00,0.00,0.02,-0.04,0.04,-0.05,1.33,74,63
5856,13.1,0.6,26.2,0.044,-0.039,-1.155,-1.2,-8.9,0.0,-0.0147,-0.0132,-0.0353,838,893,869,1031,0.01,0.01,-1.96,1.27,0.3968,3,1,0,0.00,-0.01,-0.02,-0.03,0.04,-0.05,1.35,74,63
5866,14.1,12.7,-9.3,-0.089,0.064,-1.043,-1.4,-10.0,0.0,-0.0146,-0.0290,-0.0038,840,844,924,1015,0.01,0.02,-1.94,1.27,0.3959,3,1,0,0.00,-0.01,-0.06,-0.03,0.04,-0.05,1.37,73,63
5876,11.2,15.6,87.7,0.055,0.179,-1.412,-1.4,-10.0,0.0,-0.0123,-0.0308,-0.0946,692,1003,762,1166,0.01,0.02,-1.94,1.28,0.3958,3,1,0,0.00,-0.01,-0.05,-0.03,0.04,-0.05,1.36,74,63
5886,13.5,12.9,-47.7,0.044,0.026,-1.149,-1.4,-9.4,0.0,-0.0156,-0.0270,0.0366,943,760,988,925,0.01,0.02,-1.94,1.28,0.3949,3,1,0,0.00,-0.01,-0.04,-0.04,0.04,-0.05,1.36,74,63
5896,13.3,1.5,126.0,-0.049,0.359,-1.195,-1.6,-8.4,0.0,-0.0148,-0.0127,-0.1364,645,1118,637,1207,0.01,0.02,-1.93,1.28,0.3937,3,1,0,0.00,0.00,-0.02,-0.03,0.04,-0.05,1.35,75,63
5906,13.9,3.1,-47.2,0.024,-0.084,-0.557,-1.9,-8.8,0.0,-0.0161,-0.0157,0.0380,980,761,962,880,0.01,0.02,-1.94,1.29,0.3905,3,1,0,0.00,-0.01,-0.03,-0.04,0.04,-0.05,1.35,74,63
5917,5.5,5.2,85.5,0.118,0.033,-0.825,-1.9,-8.9,0.0,-0.0087,-0.0213,-0.1084,669,1046,717,1160,0.01,0.01,-1.93,1.29,0.3917,3,1,0,0.00,-0.01,-0.03,-0.04,0.04,-0.05,1.33,75,63
5927,20.0,24.1,17.8,0.028,0.070,-0.689,-1.9,-8.6,0.0,-0.0208,-0.0387,-0.0226,824,813,914,1029,0.01,0.02,-1.93,1.29,0.3901,3,1,0,0.01,0.00,-0.02,-0.05,0.04,-0.05,1.32,74,63
5937,-2.4,35.4,5.2,-0.064,0.026,-0.956,-1.3,-7.0,0.0,0.0007,-0.0464,-0.0145,760,860,953,1033,0.01,0.02,-1.92,1.29,0.3935,3,1,0,0.01,0.00,0.00,-0.06,0.04,-0.05,1.30,75,63
5947,-2.3,33.4,88.4,0.003,0.029,-0.982,-1.6,-5.8,0.0,0.0018,-0.0424,-0.0941,660,1006,822,1132,0.01,0.01,-1.92,1.29,0.3954,3,1,0,0.01,0.00,0.03,-0.06,0.04,-0.05,1.29,77,63
5957,-17.9,9.6,-57.9,0.031,-0.043,-0.857,-1.4,-4.6,0.0,0.0162,-0.0181,0.0486,934,831,1045,824,0.01,0.01,-1.92,1.29,0.3973,3,1,0,0.01,0.00,0.05,-0.08,0.04,-0.05,1.29,76,63
5967,-23.6,-2.5,124.6,-0.017,0.066,-1.037,-1.3,-4.4,0.0,0.0234,0.0085,-0.1296,639,1218,696,1097,0.01,0.01,-1.91,1.29,0.3995,3,1,0,0.01,0.00,0.01,-0.08,0.04,-0.05,1.29,78,63
5977,-2.4,-31.1,-53.4,0.102,-0.020,-0.814,-1.5,-5.5,0.0,0.0006,0.0218,0.0440,1093,880,917,767,0.01,0.01,-1.93,1.29,0.4004,3,1,0,0.01,0.00,0.00,-0.09,0.04,-0.05,1.28,77,63
5987,-6.2,-28.0,98.6,0.090,-0.116,-0.931,-1.1,-6.0,0.0,0.0007,0.0345,-0.1150,761,1199,633,1065,0.01,0.01,-1.92,1.29,0.4005,3,1,0,0.01,0.00,-0.01,-0.09,0.04,-0.05,1.28,80,63
5997,-3.2,-31.4,-1.2,0.155,-0.237,-0.787,-1.1,-7.3,0.0,-0.0023,0.0217,0.0013,988,922,885,873,0.02,0.01,-1.93,1.29,0.4018,3,1,0,0.01,0.00,0.00,-0.11,0.04,-0.05,1.26,79,63
6007,-4.6,-28.2,25.5,0.196,-0.193,-0.986,-0.8,-6.9,0.0,0.0035,0.0175,-0.0350,844,1049,805,982,0.02,0.01,-1.91,1.29,0.4033,3,1,0,0.01,0.00,0.00,-0.12,0.04,-0.05,1.25,83,63
6017,8.0,-25.2,76.3,0.193,-0.142,-0.901,-0.6,-7.0,0.0,-0.0160,0.0000,-0.0719,817,1029,757,1089,0.02,0.01,-1.92,1.29,0.4049,3,1,0,0.02,0.00,0.03,-0.18,0.04,-0.05,1.25,82,63
6028,-16.9,-2.8,-45.3,0.210,-0.108,-1.119,6.4,-5.7,0.0,0.0232,-0.0066,0.0357,896,869,1070,890,0.02,0.01,-1.91,1.29,0.4094,3,1,0,0.04,0.00,0.03,-0.30,0.04,-0.05,1.25,83,63
6038,-8.5,-7.2,110.8,0.020,-0.050,-1.153,7.5,-5.2,0.0,0.0158,-0.0018,-0.1204,671,1165,756,1145,0.02,0.01,-1.90,1.28,0.4109,3,1,0,0.05,0.00,0.04,-0.33,0.04,-0.05,1.24,84,63
6048,18.7,-7.4,-59.6,0.074,-0.104,-1.004,6.5,-5.0,0.0,-0.0128,-0.0018,0.0491,1042,820,1009,874,0.02,0.01,-1.90,1.28,0.4121,3,1,0,0.04,0.00,0.04,-0.31,0.04,-0.04,1.24,87,63
6058,13.1,12.5,104.9,-0.100,-0.149,-1.342,5.7,-5.6,0.0,-0.0077,-0.0220,-0.1146,684,1105,742,1212,0.02,0.01,-1.89,1.28,0.4117,3,1,0,0.04,0.00,0.02,-0.30,0.04,-0.04,1.24,86,63
6068,23.2,8.7,-29.2,-0.077,-0.088,-1.277,4.9,-5.8,0.0,-0.0180,-0.0157,0.0270,1001,830,992,958,0.02,0.01,-1.90,1.28,0.4168,3,1,0,0.04,0.00,0.02,-0.29,0.04,-0.04,1.28,88,63
6078,34.1,18.6,50.2,-0.037,-0.055,-1.067,3.4,-6.2,0.0,-0.0311,-0.0288,-0.0599,814,960,794,1178,0.02,0.01,-1.89,1.28,0.4122,3,1,0,0.04,0.00,0.01,-0.26,0.03,-0.04,1.33,89,63
6088,19.7,1.7,35.7,0.089,0.031,-1.207,1.6,-6.9,0.0,-0.0230,-0.0187,-0.0364,870,921,854,1079,0.03,0.01,-1.89,1.28,0.4093,3,1,0,0.03,0.00,0.00,-0.23,0.04,-0.04,1.34,90,63
6098,13.9,-6.9,-24.2,0.130,0.070,-0.990,1.3,-7.9,0.0,-0.0104,-0.0125,0.0086,903,860,946,971,0.03,0.01,-1.89,1.28,0.4033,3,1,0,0.03,0.00,-0.01,-0.23,0.03,-0.04,1.35,89,63
6108,4.5,-21.1,103.7,-0.005,0.145,-0.963,0.4,-8.2,0.0,-0.0044,0.0091,-0.1135,723,1119,689,1124,0.03,0.01,-1.89,1.28,0.4001,3,1,0,0.03,-0.01,-0.03,-0.22,0.03,-0.04,1.33,89,63
6118,18.0,-1.5,-59.8,0.098,0.004,-0.818,0.3,-8.7,0.0,-0.0176,-0.0139,0.0492,994,757,1006,887,0.03,0.01,-1.89,1.29,0.3987,3,1,0,0.03,-0.01,-0.04,-0.22,0.04,-0.04,1.30,87,63
6129,3.1,-6.6,113.4,-0.098,0.017,-0.999,-0.1,-9.8,0.0,-0.0036,-0.0070,-0.1233,661,1110,695,1178,0.03,0.01,-1.88,1.29,0.3986,3,1,0,0.03,-0.01,-0.07,-0.22,0.04,-0.04,1.28,85,63
6139,22.8,12.1,-37.7,0.000,-0.016,-0.864,-1.1,-10.6,0.0,-0.0247,-0.0337,0.0345,967,742,1001,963,0.03,0.01,-1.89,1.29,0.4024,3,1,0,0.03,-0.01,-0.08,-0.21,0.04,-0.04,1.26,84,63
6149,8.2,17.4,78.6,0.046,0.115,-1.074,-1.7,-11.7,0.0,-0.0114,-0.0370,-0.0918,681,1004,796,1214,0.03,0.01,-1.88,1.28,0.4054,3,1,0,0.03,-0.02,-0.11,-0.19,0.04,-0.04,1.26,84,63
6159,-2.3,11.2,24.9,0.112,0.240,-1.128,-1.7,-12.3,0.0,0.0002,-0.0275,-0.0348,817,909,948,1050,0.03,0.01,-1.89,1.28,0.4091,3,1,0,0.03,-0.02,-0.13,-0.20,0.04,-0.04,1.25,83,63
6169,-13.3,13.9,0.7,-0.010,-0.072,-1.024,-1.8,-10.9,0.0,0.0072,-0.0319,-0.0211,813,990,871,1062,0.03,0.01,-1.88,1.28,0.4107,3,1,0,0.03,-0.02,-0.11,-0.20,0.04,-0.04,1.24,83,63
6179,-1.7,17.1,92.6,-0.012,-0.002,-1.285,-1.6,-8.8,0.0,-0.0004,-0.0284,-0.1002,777,1086,797,1108,0.04,0.01,-1.88,1.28,0.4151,3,1,0,0.03,-0.01,-0.06,-0.21,0.04,-0.04,1.24,82,63
6189,-1.3,18.4,-52.9,-0.173,-0.050,-0.951,-1.6,-7.2,0.0,-0.0006,-0.0297,0.0428,969,886,1019,890,0.04,0.01,-1.87,1.28,0.4145,3,1,0,0.03,-0.01,-0.03,-0.21,0.04,-0.04,1.24,81,63
6199,-2.8,19.6,118.2,-0.184,0.034,-1.071,-1.6,-5.7,0.0,0.0047,-0.0253,-0.1297,656,1174,742,1197,0.04,0.01,-1.87,1.28,0.4151,3,1,0,0.03,0.00,-0.01,-0.22,0.04,-0.04,1.24,80,63
6209,8.3,4.8,-48.0,-0.062,-0.089,-0.834,-1.9,-5.2,0.0,-0.0107,-0.0140,0.0380,1065,834,1004,870,0.04,0.01,-1.87,1.27,0.4157,3,1,0,0.03,0.00,0.00,-0.21,0.04,-0.03,1.23,80,63
6219,6.0,-0.8,88.3,-0.050,0.133,-1.181,-1.7,-4.8,0.0,-0.0053,-0.0060,-0.1087,708,1163,725,1182,0.04,0.01,-1.86,1.27,0.4164,3,1,0,0.03,0.00,0.00,-0.21,0.04,-0.03,1.23,80,63
6229,6.2,-7.5,5.9,-0.032,0.202,-0.778,-2.0,-4.5,0.0,-0.0090,-0.0003,-0.0118,998,904,944,935,0.04,0.01,-1.87,1.27,0.4168,3,1,0,0.03,0.00,0.00,-0.21,0.04,-0.03,1.22,79,63
6240,5.6,9.6,3.9,-0.050,-0.040,-0.836,-1.6,-3.8,0.0,-0.0077,-0.0175,-0.0142,864,1029,818,1081,0.04,0.01,-1.86,1.27,0.4180,3,1,0,0.03,0.00,0.01,-0.22,0.04,-0.03,1.22,79,63
6250,6.9,14.0,79.2,0.012,-0.101,-0.683,-2.3,-3.5,0.0,-0.0092,-0.0167,-0.0784,826,1037,832,1090,0.04,0.01,-1.86,1.27,0.4173,3,1,0,0.03,0.00,0.01,-0.21,0.04,-0.03,1.22,79,63
6260,12.3,13.2,-64.5,-0.017,0.076,-0.817,-3.1,-3.5,0.0,-0.0141,-0.0247,0.0519,976,808,1066,942,0.04,0.01,-1.86,1.26,0.4183,3,1,0,0.03,0.00,0.02,-0.18,0.04,-0.03,1.22,78,63
6270,2.8,12.6,120.6,-0.021,0.065,-0.832,-3.5,-3.5,0.0,-0.0068,-0.0201,-0.1302,703,1133,735,1232,0.04,0.01,-1.85,1.26,0.4196,3,1,0,0.03,0.00,0.02,-0.18,0.04,-0.03,1.21,77,63
6280,9.2,5.0,-65.4,0.101,-0.031,-0.596,-4.2,-4.2,0.0,-0.0139,-0.0133,0.0551,1094,765,1044,877,0.04,0.01,-1.86,1.26,0.4166,3,1,0,0.02,0.00,0.01,-0.16,0.04,-0.03,1.21,77,63
6290,-5.7,-2.6,105.4,-0.043,0.041,-0.991,-4.7,-4.2,0.0,0.0005,-0.0056,-0.1158,698,1183,729,1187,0.04,0.01,-1.85,1.26,0.4188,3,1,0,0.02,0.00,0.00,-0.15,0.04,-0.03,1.21,77,63
6300,-4.9,11.7,-8.9,-0.007,-0.163,-0.904,-4.9,-3.8,0.0,0.0002,-0.0153,0.0112,995,888,1011,911,0.04,0.01,-1.86,1.26,0.4199,3,1,0,0.02,0.00,0.03,-0.14,0.04,-0.03,1.20,77,63
6310,-15.8,25.8,20.2,0.004,-0.261,-0.955,-4.6,-4.3,0.0,0.0107,-0.0343,-0.0306,774,1048,877,1114,0.04,0.01,-1.85,1.25,0.4209,3,1,0,0.02,0.00,0.02,-0.15,0.03,-0.03,1.20,77,63
6320,9.1,21.3,69.9,-0.154,-0.093,-0.632,-5.2,-4.2,0.0,-0.0151,-0.0305,-0.0759,832,961,888,1119,0.04,0.01,-1.85,1.25,0.4194,3,1,0,0.02,0.00,0.03,-0.14,0.04,-0.03,1.20,77,63
6330,4.0,28.7,-39.5,-0.091,0.004,-1.077,-5.0,-4.3,0.0,-0.0072,-0.0338,0.0224,940,875,1017,996,0.04,0.01,-1.84,1.25,0.4229,3,1,0,0.02,0.00,0.03,-0.13,0.03,-0.03,1.20,76,63
6340,-3.0,11.1,113.6,0.004,0.015,-1.042,-5.1,-5.0,0.0,-0.0025,-0.0202,-0.1240,708,1107,786,1219,0.04,0.01,-1.84,1.25,0.4219,3,1,0,0.02,0.00,0.02,-0.13,0.03,-0.03,1.21,76,63
6351,5.2,22.6,-63.6,0.110,-0.176,-1.057,-5.4,-5.6,0.0,-0.0107,-0.0306,0.0522,1041,834,1038,908,0.04,0.01,-1.84,1.24,0.4221,3,1,0,0.02,0.00,0.00,-0.12,0.03,-0.03,1.21,76,63
6361,11.0,28.3,98.5,0.032,-0.091,-1.009,-5.7,-6.0,0.0,-0.0181,-0.0384,-0.1119,708,1160,711,1232,0.04,0.01,-1.83,1.24,0.4208,3,1,0,0.02,0.00,0.00,-0.11,0.03,-0.03,1.21,76,63
6371,18.3,30.3,-40.0,-0.113,0.060,-1.381,-5.3,-6.0,0.0,-0.0242,-0.0406,0.0294,1003,764,1076,988,0.04,0.01,-1.83,1.24,0.4232,3,1,0,0.02,0.00,0.00,-0.11,0.03,-0.03,1.21,75,63
6381,0.7,14.5,33.5,-0.109,-0.051,-0.980,-5.4,-5.5,0.0,-0.0086,-0.0297,-0.0540,779,1000,872,1169,0.03,0.01,-1.82,1.24,0.4219,3,1,0,0.02,0.00,0.01,-0.10,0.03,-0.03,1.21,75,63
6391,3.4,-7.2,38.7,0.189,0.203,-1.248,-5.2,-5.5,0.0,-0.0092,-0.0023,-0.0493,904,927,931,1056,0.03,0.01,-1.83,1.24,0.4216,3,1,0,0.02,0.00,0.02,-0.10,0.03,-0.03,1.21,75,63
6401,-7.3,-13.9,-15.7,0.082,0.065,-1.272,-4.8,-5.6,0.0,0.0041,0.0065,-0.0033,924,1004,931,965,0.03,0.01,-1.82,1.24,0.4224,3,1,0,0.02,0.00,0.00,-0.10,0.03,-0.03,1.21,76,63
6411,-0.9,-14.8,100.9,-0.013,0.058,-1.285,-4.9,-6.1,0.0,-0.0045,0.0045,-0.1115,813,1163,745,1108,0.03,0.01,-1.82,1.24,0.4231,3,1,0,0.02,0.00,0.00,-0.09,0.03,-0.03,1.21,75,63
6421,-8.3,5.5,-59.0,0.000,-0.198,-1.030,-4.9,-6.7,0.0,0.0029,-0.0154,0.0444,1002,864,1046,904,0.03,0.01,-1.82,1.23,0.4212,3,1,0,0.01,0.00,-0.01,-0.09,0.03,-0.03,1.21,76,63
6431,-3.3,-2.6,108.5,-0.123,-0.118,-1.147,-4.5,-6.5,0.0,-0.0016,-0.0089,-0.1201,694,1153,751,1217,0.03,0.01,-1.81,1.23,0.4213,3,1,0,0.01,0.00,-0.01,-0.09,0.03,-0.03,1.21,75,63
6441,5.1,-15.7,-35.1,0.003,-0.087,-1.354,-4.2,-5.3,0.0,-0.0098,0.0063,0.0244,1050,871,996,919,0.03,0.01,-1.82,1.23,0.4240,3,1,0,0.02,0.00,0.01,-0.10,0.03,-0.03,1.21,75,63
6452,0.0,-10.7,59.3,-0.036,-0.124,-0.965,-4.2,-4.4,0.0,-0.0046,0.0021,-0.0737,769,1117,774,1144,0.03,0.01,-1.81,1.23,0.4198,3,1,0,0.01,0.00,0.03,-0.10,0.03,-0.03,1.21,75,63
6462,-5.5,-12.1,30.9,-0.015,0.077,-1.226,-4.0,-3.9,0.0,0.0009,0.0041,-0.0417,963,974,883,988,0.03,0.01,-1.81,1.23,0.4204,3,1,0,0.02,0.00,0.04,-0.10,0.03,-0.03,1.22,75,63
6472,-4.2,5.1,-22.0,-0.035,-0.228,-0.904,-3.3,-3.1,0.0,-0.0126,-0.0034,-0.0052,962,967,834,1039,0.03,0.01,-1.80,1.23,0.4196,3,1,0,0.02,0.00,0.05,-0.12,0.03,-0.03,1.22,74,63
6482,-9.4,2.6,85.0,0.027,-0.082,-1.009,-2.8,-2.2,0.0,0.0062,-0.0058,-0.0932,814,1112,783,1079,0.03,0.01,-1.80,1.23,0.4176,3,1,0,0.02,0.00,0.07,-0.12,0.03,-0.03,1.21,74,63
6492,6.3,-12.5,-65.1,0.068,0.005,-0.976,-2.7,-1.9,0.0,-0.0096,0.0064,0.0542,1052,842,1030,879,0.03,0.01,-1.80,1.23,0.4196,3,1,0,0.02,0.00,0.09,-0.12,0.03,-0.03,1.21,73,63
6502,-0.7,0.7,119.7,0.059,0.034,-0.994,-2.8,-1.0,0.0,-0.0002,0.0016,-0.1305,724,1213,702,1176,0.03,0.01,-1.79,1.23,0.4213,3,1,0,0.02,0.01,0.11,-0.12,0.03,-0.03,1.21,73,63
6512,2.7,-20.7,-54.2,0.167,0.006,-0.841,-3.2,-0.2,0.0,-0.0085,0.0182,0.0459,1124,856,984,842,0.03,0.01,-1.80,1.23,0.4200,3,1,0,0.02,0.01,0.13,-0.11,0.03,-0.02,1.21,73,63
6522,-1.4,-9.7,85.1,-0.130,-0.039,-0.988,-2.8,0.4,0.0,-0.0018,0.0060,-0.0961,761,1184,702,1137,0.03,0.01,-1.78,1.23,0.4171,3,1,0,0.02,0.01,0.14,-0.11,0.03,-0.03,1.21,74,63
6532,-9.6,-14.7,18.9,0.027,-0.066,-0.967,-2.8,0.0,0.0,0.0068,0.0139,-0.0260,968,1022,899,919,0.03,0.01,-1.79,1.22,0.4204,3,1,0,0.02,0.01,0.14,-0.11,0.03,-0.02,1.21,73,63
6542,-16.7,6.3,-7.0,-0.036,-0.087,-0.795,-2.8,-0.4,0.0,0.0134,-0.0108,-0.0040,837,1014,927,1011,0.03,0.01,-1.78,1.22,0.4177,3,1,0,0.02,0.01,0.13,-0.11,0.03,-0.02,1.20,73,63
6552,-5.0,13.4,99.3,-0.049,-0.067,-0.763,-3.3,-1.1,0.0,0.0059,-0.0144,-0.1011,734,1118,806,1132,0.03,0.01,-1.78,1.22,0.4180,3,1,0,0.02,0.01,0.12,-0.10,0.03,-0.02,1.20,73,63
6563,14.7,20.9,-57.1,-0.050,-0.184,-0.764,-3.5,-1.5,0.0,-0.0210,-0.0220,0.0421,1029,820,995,950,0.03,0.01,-1.78,1.22,0.4185,3,1,0,0.01,0.01,0.11,-0.09,0.03,-0.02,1.21,74,63
6573,2.0,29.5,123.8,0.028,0.166,-1.317,-3.7,-1.5,0.0,-0.0063,-0.0352,-0.1349,642,1154,748,1270,0.03,0.01,-1.77,1.22,0.4212,3,1,0,0.01,0.01,0.13,-0.08,0.03,-0.02,1.21,74,63
6583,7.7,8.5,-59.0,0.055,0.104,-0.623,-3.9,-0.8,0.0,-0.0126,-0.0152,0.0494,1036,779,1056,907,0.03,0.01,-1.78,1.22,0.4163,3,1,0,0.01,0.01,0.15,-0.08,0.03,-0.02,1.22,75,63
6593,-1.5,16.0,82.8,0.105,0.076,-0.757,-3.7,-0.5,0.0,-0.0027,-0.0208,-0.0939,682,1131,741,1216,0.03,0.01,-1.77,1.22,0.4152,3,1,0,0.01,0.01,0.15,-0.08,0.03,-0.02,1.22,75,63
6603,6.2,8.9,-9.7,-0.025,0.131,-0.955,-3.9,-0.3,0.0,-0.0126,-0.0169,0.0113,970,852,990,964,0.03,0.02,-1.77,1.22,0.4161,3,1,0,0.01,0.01,0.17,-0.08,0.03,-0.02,1.22,75,63
6613,5.6,1.6,12.1,-0.106,0.027,-1.016,-3.5,0.3,0.0,-0.0097,-0.0054,-0.0233,843,1000,890,1045,0.03,0.02,-1.76,1.22,0.4163,3,1,0,0.01,0.02,0.18,-0.08,0.03,-0.02,1.22,76,63
6623,-2.4,-7.9,83.3,0.106,0.039,-0.942,-3.4,-0.2,0.0,-0.0027,-0.0027,-0.0838,795,1065,807,1108,0.03,0.02,-1.76,1.22,0.4160,3,1,0,0.01,0.02,0.18,-0.09,0.03,-0.02,1.21,77,63
6633,-2.1,-1.4,-45.4,0.162,0.155,-1.093,-2.6,-0.4,0.0,0.0014,-0.0104,0.0296,928,875,1031,943,0.02,0.02,-1.76,1.22,0.4160,3,1,0,0.02,0.02,0.17,-0.09,0.02,-0.02,1.21,76,63
6643,-4.0,-16.7,124.8,0.100,0.322,-1.141,-2.9,0.7,0.0,0.0004,0.0133,-0.1361,686,1200,707,1188,0.02,0.02,-1.75,1.22,0.4167,3,1,0,0.01,0.02,0.20,-0.08,0.02,-0.02,1.20,77,63
6653,5.4,-1.2,-65.9,0.046,-0.043,-0.842,-2.9,0.1,0.0,-0.0045,-0.0090,0.0532,1020,822,1063,871,0.02,0.02,-1.75,1.22,0.4161,3,1,0,0.01,0.02,0.19,-0.08,0.02,-0.02,1.19,77,63
6664,-3.8,3.1,101.6,-0.052,0.038,-1.318,-2.8,0.0,0.0,0.0004,-0.0073,-0.1130,640,1167,774,1199,0.02,0.02,-1.74,1.22,0.4165,3,1,0,0.01,0.02,0.19,-0.06,0.02,-0.02,1.19,77,63
6674,18.4,9.0,-21.3,-0.031,0.031,-1.006,-3.6,-0.2,0.0,-0.0250,-0.0229,0.0179,983,802,997,1004,0.02,0.02,-1.75,1.22,0.4173,3,1,0,0.01,0.02,0.19,-0.05,0.02,-0.02,1.19,77,63
6684,14.1,23.3,31.5,0.138,0.103,-1.002,-3.5,-0.2,0.0,-0.0188,-0.0301,-0.0479,783,972,851,1175,0.02,0.02,-1.74,1.22,0.4165,3,1,0,0.01,0.02,0.22,-0.06,0.02,-0.02,1.19,78,63
6694,3.5,-4.7,44.7,0.017,0.258,-1.204,-3.4,0.6,0.0,-0.0075,0.0013,-0.0561,869,932,899,1081,0.02,0.02,-1.74,1.22,0.4169,3,1,0,0.01,0.02,0.26,-0.07,0.02,-0.02,1.20,77,63
6704,3.6,-18.1,-33.5,0.140,0.149,-1.040,-2.5,2.4,0.0,-0.0010,0.0108,0.0122,959,953,953,918,0.02,0.02,-1.73,1.21,0.4171,3,1,0,0.01,0.03,0.29,-0.07,0.02,-0.02,1.20,78,63
6714,-8.8,-23.8,100.3,0.046,0.087,-1.108,-2.7,3.8,0.0,0.0055,0.0235,-0.1117,796,1169,713,1111,0.02,0.02,-1.73,1.21,0.4178,3,1,0,0.01,0.03,0.30,-0.08,0.02,-0.02,1.21,78,63
6724,7.7,0.6,-66.9,0.154,0.074,-1.037,-1.9,3.4,0.0,-0.0102,-0.0013,0.0555,1032,818,1059,877,0.02,0.02,-1.73,1.21,0.4173,3,1,0,0.01,0.03,0.31,-0.07,0.02,-0.02,1.21,77,63
6734,-5.8,0.4,114.8,-0.111,0.042,-0.940,-1.9,4.4,0.0,0.0059,-0.0016,-0.1249,689,1181,731,1168,0.02,0.02,-1.72,1.21,0.4151,3,1,0,0.01,0.04,0.31,-0.07,0.02,-0.02,1.23,77,63
6744,1.8,13.3,-39.0,0.010,-0.100,-1.179,-2.1,3.4,0.0,-0.0045,-0.0142,0.0275,1007,831,1035,903,0.02,0.02,-1.73,1.22,0.4161,3,1,0,0.01,0.03,0.30,-0.07,0.02,-0.02,1.23,78,63
6754,-15.9,4.9,63.4,0.099,-0.083,-0.930,-1.1,2.9,0.0,0.0146,-0.0112,-0.0843,717,1104,815,1112,0.02,0.02,-1.72,1.22,0.4125,3,1,0,0.01,0.03,0.29,-0.09,0.01,-0.02,1.26,78,63
6764,-5.2,-2.0,31.5,-0.071,0.022,-1.016,-1.1,2.8,0.0,0.0035,0.0007,-0.0430,891,971,908,964,0.02,0.02,-1.72,1.22,0.4106,3,1,0,0.01,0.03,0.29,-0.09,0.01,-0.02,1.28,79,63
6775,0.3,11.1,-11.5,-0.147,-0.056,-1.051,-1.1,2.4,0.0,-0.0029,-0.0012,-0.0142,901,982,873,970,0.02,0.02,-1.71,1.22,0.4094,3,1,0,0.01,0.03,0.28,-0.08,0.01,-0.02,1.28,80,63
6785,4.4,14.9,84.9,-0.047,-0.023,-0.978,-1.1,1.9,0.0,-0.0061,-0.0172,-0.0965,764,1072,787,1074,0.02,0.03,-1.71,1.22,0.4057,3,1,0,0.01,0.03,0.28,-0.08,0.01,-0.02,1.27,81,63
6795,7.3,14.2,-62.4,0.023,0.056,-1.103,-1.0,1.0,0.0,-0.0074,-0.0174,0.0492,974,809,1035,885,0.02,0.03,-1.71,1.22,0.4063,3,1,0,0.01,0.03,0.27,-0.08,0.01,-0.02,1.27,80,63
6805,0.4,23.6,113.8,-0.074,0.022,-0.873,-1.0,0.6,0.0,-0.0020,-0.0238,-0.1256,651,1118,725,1199,0.02,0.03,-1.70,1.23,0.4053,3,1,0,0.01,0.03,0.26,-0.08,0.01,-0.02,1.27,81,63
6815,1.3,14.9,-59.8,0.067,0.062,-1.094,-0.7,0.5,0.0,-0.0026,-0.0186,0.0481,1005,795,1057,843,0.02,0.03,-1.71,1.23,0.4062,3,1,0,0.01,0.03,0.27,-0.08,0.01,-0.02,1.26,82,63
6825,-17.7,-1.3,74.1,-0.056,0.005,-0.883,-0.2,0.4,0.0,0.0168,-0.0047,-0.0916,700,1117,784,1086,0.02,0.03,-1.69,1.23,0.4043,3,1,0,0.02,0.03,0.27,-0.09,0.01,-0.02,1.26,83,63
6835,-12.1,-6.4,9.1,0.039,0.022,-0.977,-0.1,1.6,0.0,0.0115,0.0039,-0.0208,952,972,928,854,0.02,0.03,-1.70,1.23,0.4068,3,1,0,0.02,0.04,0.30,-0.09,0.01,-0.02,1.27,82,63
6845,-16.4,17.6,5.8,-0.041,-0.141,-0.863,0.1,2.4,0.0,0.0102,-0.0093,-0.0291,842,1007,872,986,0.02,0.03,-1.69,1.23,0.4068,3,1,0,0.02,0.04,0.32,-0.10,0.01,-0.02,1.33,82,63
6855,-9.2,22.7,85.0,-0.009,-0.135,-0.957,0.8,2.8,0.0,0.0095,-0.0243,-0.0967,753,1092,805,1029,0.02,0.03,-1.69,1.24,0.4032,3,1,0,0.02,0.04,0.33,-0.11,0.01,-0.02,1.40,82,63
6865,-4.4,8.8,-46.9,-0.182,-0.129,-0.958,1.0,2.9,0.0,0.0049,-0.0101,0.0351,934,866,989,847,0.02,0.03,-1.68,1.24,0.3975,3,1,0,0.02,0.04,0.34,-0.11,0.00,-0.02,1.43,82,63
6876,-5.2,18.5,115.1,-0.135,0.009,-0.914,1.1,3.3,0.0,0.0088,-0.0126,-0.1285,623,1148,691,1135,0.02,0.03,-1.68,1.25,0.3923,3,1,0,0.02,0.04,0.34,-0.12,0.00,-0.02,1.47,81,63
6886,7.2,13.7,-56.9,-0.027,-0.077,-0.709,1.1,3.3,0.0,-0.0065,-0.0147,0.0451,987,759,970,809,0.02,0.03,-1.68,1.26,0.3828,3,1,0,0.02,0.04,0.35,-0.12,0.00,-0.02,1.43,84,63
6896,-5.8,6.3,84.6,-0.034,-0.006,-0.963,1.0,3.2,0.0,0.0063,-0.0073,-0.0964,648,1089,702,1070,0.02,0.03,-1.67,1.26,0.3807,3,1,0,0.02,0.04,0.35,-0.11,0.00,-0.02,1.40,83,63
6906,6.9,-1.3,-7.4,0.016,0.109,-0.680,0.8,2.8,0.0,-0.0062,0.0004,0.0083,921,837,896,854,0.02,0.03,-1.67,1.27,0.3806,3,1,0,0.02,0.04,0.34,-0.11,0.00,-0.02,1.44,85,63
6916,6.8,9.3,16.0,-0.034,0.026,-0.872,1.1,2.3,0.0,-0.0061,-0.0112,-0.0279,795,951,779,969,0.02,0.03,-1.66,1.28,0.3787,3,1,0,0.02,0.04,0.33,-0.12,0.00,-0.02,1.49,85,63
6926,14.4,15.0,70.1,-0.030,0.040,-0.696,0.6,2.6,0.0,-0.0089,-0.0081,-0.0692,750,960,741,987,0.02,0.03,-1.66,1.29,0.3713,3,1,0,0.02,0.04,0.34,-0.11,0.00,-0.02,1.47,87,63
6936,-2.6,20.1,-58.4,0.001,-0.116,-1.123,-0.1,2.8,0.0,0.0019,-0.0181,0.0410,901,770,954,824,0.02,0.04,-1.66,1.29,0.3728,3,1,0,0.02,0.05,0.35,-0.09,0.00,-0.02,1.44,86,63
6946,9.2,30.8,109.9,0.049,0.001,-0.791,-0.4,2.0,0.0,-0.0103,-0.0331,-0.1219,610,1023,665,1145,0.02,0.04,-1.65,1.30,0.3719,3,1,0,0.02,0.04,0.34,-0.08,0.00,-0.02,1.34,88,63
6956,8.2,-7.1,-72.5,-0.011,-0.052,-0.951,-0.7,1.2,0.0,-0.0101,0.0043,0.0610,1018,740,961,774,0.02,0.04,-1.65,1.30,0.3785,3,1,0,0.01,0.04,0.33,-0.08,0.00,-0.02,1.25,87,63
6966,4.1,-5.7,81.1,-0.045,-0.054,-0.897,-0.8,-0.1,0.0,-0.0055,0.0014,-0.0931,710,1096,673,1084,0.02,0.04,-1.64,1.30,0.3878,3,1,0,0.01,0.04,0.30,-0.08,0.00,-0.02,1.24,86,63
6976,8.3,-15.9,-30.5,-0.082,0.061,-0.847,-0.4,-1.4,0.0,-0.0140,0.0076,0.0285,1001,840,919,864,0.02,0.04,-1.64,1.30,0.3960,3,1,0,0.02,0.03,0.27,-0.09,0.00,-0.01,1.23,85,63
6987,6.6,-19.6,12.3,0.143,0.031,-0.820,0.0,-2.9,0.0,-0.0071,0.0125,-0.0244,876,991,812,993,0.02,0.04,-1.63,1.30,0.4023,3,1,0,0.02,0.03,0.24,-0.11,0.00,-0.01,1.22,85,63
6997,7.4,-14.5,61.7,0.086,0.142,-0.862,0.2,-3.4,0.0,-0.0076,0.0069,-0.0738,819,974,825,1071,0.02,0.04,-1.63,1.29,0.4046,3,1,0,0.02,0.03,0.24,-0.11,0.00,-0.01,1.21,83,63
7007,-0.5,-5.0,-42.3,0.162,0.254,-1.244,0.2,-3.6,0.0,0.0035,-0.0069,0.0283,935,881,1032,903,0.02,0.04,-1.63,1.29,0.4127,3,1,0,0.02,0.03,0.24,-0.10,0.00,-0.01,1.21,83,63
7017,-9.7,-10.2,121.5,0.129,0.316,-1.332,0.1,-2.8,0.0,0.0093,0.0031,-0.1336,659,1197,750,1173,0.02,0.04,-1.62,1.29,0.4165,3,1,0,0.02,0.03,0.26,-0.11,0.00,-0.01,1.21,82,63
7027,-10.0,5.2,-63.7,0.202,-0.099,-0.973,-0.1,-3.2,0.0,0.0069,-0.0091,0.0495,1011,850,1071,858,0.02,0.04,-1.62,1.29,0.4178,3,1,0,0.02,0.03,0.25,-0.10,0.00,-0.01,1.20,82,63
7037,-14.9,11.4,100.4,-0.010,-0.008,-1.303,0.0,-3.4,0.0,0.0145,-0.0192,-0.1126,672,1185,766,1179,0.02,0.04,-1.61,1.28,0.4195,3,1,0,0.02,0.03,0.24,-0.10,0.00,-0.01,1.20,81,63
7047,-5.0,-1.7,-30.1,-0.055,-0.103,-1.088,0.2,-3.7,0.0,0.0042,-0.0057,0.0211,995,904,1025,909,0.02,0.04,-1.62,1.28,0.4236,3,1,0,0.02,0.03,0.23,-0.11,0.00,-0.01,1.20,81,63
7057,-2.9,7.0,36.0,0.049,-0.067,-0.864,0.5,-3.7,0.0,0.0036,-0.0149,-0.0528,799,1055,872,1087,0.02,0.04,-1.61,1.28,0.4210,3,1,0,0.02,0.03,0.23,-0.11,0.00,-0.01,1.21,80,63
7067,-6.6,-10.6,44.8,0.052,-0.051,-1.253,0.0,-3.0,0.0,0.0062,0.0032,-0.0571,862,1017,896,1056,0.02,0.04,-1.61,1.27,0.4233,3,1,0,0.02,0.03,0.25,-0.11,-0.01,-0.01,1.22,80,63
7077,12.9,-21.1,-34.3,0.103,0.226,-1.098,0.7,-2.5,0.0,-0.0044,0.0062,0.0139,1005,936,965,929,0.02,0.04,-1.60,1.27,0.4240,3,1,0,0.02,0.03,0.26,-0.11,-0.01,-0.01,1.23,79,63
