t_ms,gx,gy,gz,ax,ay,az,sp_x,sp_y,sp_z,pid_x,pid_y,pid_z,m1,m2,m3,m4,roll,pitch,yaw,alt_m,thr,mode,armed,sat,sp_roll,sp_pitch,v_fwd,v_right,vt_fwd,vt_right,range_m,flow_q,est_flags
#
# chuyen bay moi, moc boot_ms = 24441
#   nhip Hz = 100
10,0.0,0.0,0.0,0.006,-0.004,-1.013,1.6,-1.6,-1.2,0.0016,-0.0015,-0.0013,158,169,170,169,0.00,0.00,-0.46,0.08,0.0000,1,1,1,0.01,0.00,0.01,0.00,0.00,0.00,0.08,128,30
20,0.0,0.0,0.0,0.004,-0.004,-1.012,1.6,-1.6,-1.2,0.0017,-0.0016,-0.0012,158,169,171,169,0.00,0.00,-0.46,0.08,0.0000,1,1,1,0.01,0.00,0.01,0.00,0.00,0.00,0.08,127,30
30,0.0,0.0,0.0,0.004,-0.005,-1.014,1.6,-1.6,-0.6,0.0017,-0.0016,-0.0007,158,167,171,167,0.00,0.00,-0.46,0.08,0.0000,1,1,1,0.01,0.00,0.01,0.00,0.00,0.00,0.08,128,30
40,-0.1,0.0,0.0,0.005,-0.003,-1.013,1.6,-1.6,-0.6,0.0017,-0.0017,-0.0006,158,167,171,167,0.00,0.00,-0.46,0.08,0.0000,1,1,1,0.01,0.00,0.01,0.00,0.00,0.00,0.08,127,30
50,0.0,0.0,0.0,0.006,-0.003,-1.014,1.6,-1.6,-0.6,0.0016,-0.0016,-0.0006,158,167,170,167,0.00,0.00,-0.46,0.08,0.0000,1,1,1,0.01,0.00,0.01,0.00,0.00,0.00,0.08,128,30
60,0.0,0.0,0.0,0.006,-0.004,-1.013,1.6,-1.6,-0.6,0.0016,-0.0016,-0.0006,158,166,170,166,0.00,0.00,-0.46,0.08,0.0000,1,1,1,0.01,0.00,0.01,0.00,0.00,0.00,0.08,127,30
70,0.0,0.1,0.0,0.005,-0.005,-1.013,1.6,-1.6,0.0,0.0016,-0.0017,0.0000,158,165,171,165,0.00,0.00,-0.46,0.08,0.0000,1,1,1,0.01,0.00,0.01,0.00,0.00,0.00,0.08,128,30
80,0.0,0.0,0.0,0.004,-0.006,-1.014,1.6,-1.6,0.0,0.0016,-0.0016,0.0000,158,164,171,164,0.00,0.00,-0.46,0.08,0.0000,1,1,1,0.01,0.00,0.01,0.00,0.00,0.00,0.08,127,30
90,0.0,0.1,0.0,0.005,-0.005,-1.012,1.6,-1.6,0.0,0.0015,-0.0017,0.0000,158,164,170,165,0.00,0.00,-0.46,0.08,0.0000,1,1,1,0.01,0.00,0.01,0.00,0.00,0.00,0.08,127,30
100,-0.1,0.0,0.0,0.004,-0.005,-1.013,1.6,-1.6,0.0,0.0017,-0.0015,0.0000,158,165,171,164,0.00,0.00,-0.46,0.08,0.0000,1,1,1,0.01,0.00,0.01,0.00,0.00,0.00,0.08,126,30
110,0.0,0.0,-1.2,0.007,-0.006,-1.011,1.6,-1.6,0.0,0.0015,-0.0015,0.0012,158,160,170,160,0.00,0.00,-0.46,0.08,0.0000,1,1,1,0.01,0.00,0.01,0.00,0.00,0.00,0.08,127,30
120,0.5,-0.8,-1.3,0.007,0.010,-0.997,1.6,-1.6,0.0,0.0012,-0.0011,0.0014,159,158,169,158,0.00,0.00,-0.46,0.08,0.0000,1,1,1,0.01,0.00,0.01,0.00,0.00,0.00,0.08,126,30
130,0.8,-1.9,2.6,0.040,-0.023,-0.996,1.6,-1.6,0.0,0.0007,0.0001,-0.0027,158,172,162,170,0.00,0.00,-0.46,0.08,0.0000,1,1,1,0.01,0.00,0.01,0.00,0.00,0.00,0.08,128,30
140,-0.2,0.0,-2.4,0.011,-0.006,-0.998,1.6,-1.5,0.0,0.0018,-0.0014,0.0024,160,161,173,158,0.00,0.00,-0.46,0.08,0.0000,1,1,1,0.01,0.00,0.02,0.00,0.00,0.00,0.08,129,30
150,-0.3,1.7,-2.0,0.012,0.058,-1.006,1.6,-1.6,0.0,0.0021,-0.0037,0.0020,158,159,182,165,0.00,0.00,-0.46,0.08,0.0000,1,1,1,0.01,0.00,0.01,0.00,0.00,0.00,0.08,130,30
160,-0.7,0.3,-5.3,-0.005,0.022,-1.001,1.6,-1.6,0.0,0.0024,-0.0020,0.0053,171,162,187,158,0.00,0.00,-0.46,0.08,0.0000,1,1,1,0.01,0.00,0.01,0.00,0.00,0.00,0.08,128,30
170,0.0,0.9,2.2,-0.032,0.020,-0.991,1.6,-1.6,0.0,0.0016,-0.0023,-0.0022,158,175,170,174,0.00,0.00,-0.46,0.08,0.0000,1,1,1,0.01,0.00,0.01,0.00,0.00,0.00,0.08,129,30
180,1.2,-0.7,5.8,0.017,0.005,-0.993,1.5,-1.5,0.0,0.0002,-0.0006,-0.0054,158,180,162,181,0.00,0.00,-0.46,0.08,0.0000,1,1,1,0.01,0.00,0.01,0.00,0.00,0.00,0.08,127,30
191,-0.5,-0.5,-0.7,0.022,-0.014,-1.000,1.5,-1.4,0.0,0.0019,-0.0008,0.0008,159,162,169,158,0.00,0.00,-0.46,0.08,0.0000,1,1,1,0.01,0.00,0.01,0.00,0.00,0.00,0.08,125,30
201,1.5,-1.9,-0.5,0.008,0.032,-0.993,1.4,-1.4,0.0,0.0000,0.0007,0.0002,162,162,159,158,0.00,0.00,-0.46,0.08,0.0000,1,1,1,0.01,0.00,0.01,0.00,0.00,0.00,0.08,124,30
211,-0.2,1.0,-0.7,-0.006,-0.005,-1.026,1.4,-1.4,0.0,0.0017,-0.0027,0.0006,158,162,175,166,0.00,0.00,-0.46,0.08,0.0000,1,1,1,0.01,0.00,0.01,0.00,0.00,0.00,0.08,126,30
221,-2.1,2.3,-2.1,0.016,-0.039,-1.024,1.4,-1.3,0.0,0.0035,-0.0037,0.0021,158,165,186,164,0.00,0.00,-0.46,0.08,0.0000,1,1,1,0.01,0.00,0.01,0.00,0.00,0.00,0.08,125,30
231,0.1,-0.9,0.7,-0.035,0.034,-1.020,1.3,-1.3,0.0,0.0009,0.0000,-0.0006,158,163,160,158,0.00,0.00,-0.46,0.08,0.0000,1,1,1,0.01,0.00,0.01,0.00,0.00,0.00,0.08,123,30
241,0.0,-1.9,-0.3,-0.034,0.004,-1.013,1.4,-1.3,0.0,0.0013,0.0005,0.0006,164,164,166,158,0.00,0.00,-0.46,0.08,0.0000,1,1,1,0.01,0.00,0.01,0.00,0.00,0.00,0.08,125,30
251,-0.5,0.9,0.0,-0.031,0.000,-1.014,1.4,-1.3,0.0,0.0022,-0.0024,-0.0003,158,169,177,169,0.00,0.00,-0.46,0.08,0.0000,1,1,1,0.01,0.00,0.02,0.00,0.00,0.00,0.07,126,30
261,0.9,-1.3,3.6,0.010,0.008,-1.008,1.3,-1.3,0.0,0.0002,0.0001,-0.0038,159,173,158,173,0.00,0.00,-0.46,0.08,0.0000,1,1,1,0.01,0.00,0.01,0.00,0.00,0.00,0.07,125,30
271,0.0,0.0,1.2,-0.003,-0.001,-0.996,1.3,-1.3,0.0,0.0012,-0.0014,-0.0012,158,168,168,165,0.00,0.00,-0.46,0.08,0.0000,1,1,1,0.01,0.00,0.01,0.00,0.00,0.00,0.08,126,30
281,-0.4,0.6,-2.4,0.020,-0.025,-1.012,1.4,-1.3,0.0,0.0018,-0.0020,0.0025,160,158,175,158,0.00,0.00,-0.46,0.08,0.0000,1,1,1,0.01,0.00,0.02,0.00,0.00,0.00,0.08,127,30
292,-0.5,-0.7,-1.6,0.000,-0.012,-1.024,1.3,-1.3,0.0,0.0018,-0.0005,0.0014,161,162,169,158,0.00,0.00,-0.46,0.08,0.0000,1,1,1,0.01,0.00,0.01,0.00,0.00,0.00,0.08,125,30
302,-0.6,0.0,-0.1,-0.006,-0.003,-1.028,1.4,-1.4,0.0,0.0020,-0.0013,0.0001,158,166,173,166,0.00,0.00,-0.47,0.08,0.0000,1,1,1,0.01,0.00,0.02,0.00,0.00,0.00,0.08,126,30
312,-1.1,0.4,0.8,-0.002,-0.003,-1.035,1.4,-1.4,0.0,0.0026,-0.0017,-0.0007,158,170,174,167,0.00,0.00,-0.47,0.08,0.0000,1,1,1,0.01,0.00,0.02,0.00,0.00,0.00,0.08,127,30
322,-0.4,1.0,0.2,0.002,-0.009,-1.037,1.4,-1.4,0.0,0.0018,-0.0024,-0.0002,158,165,171,164,0.00,0.00,-0.47,0.08,0.0000,1,1,1,0.01,0.00,0.02,0.00,0.00,0.00,0.08,126,30
332,0.2,0.4,0.0,-0.009,0.003,-1.020,1.5,-1.4,0.0,0.0010,-0.0007,-0.0002,158,163,162,159,0.00,0.00,-0.47,0.08,0.0000,1,1,1,0.01,0.00,0.02,0.00,0.00,0.00,0.08,124,30
342,0.0,0.9,0.1,-0.024,0.008,-1.020,1.5,-1.4,0.0,0.0016,-0.0018,-0.0004,158,168,170,165,0.00,0.00,-0.47,0.08,0.0000,1,1,1,0.01,0.00,0.02,0.00,0.00,0.00,0.08,126,30
352,-1.2,0.2,-0.4,0.005,-0.008,-1.029,1.5,-1.5,0.0,0.0028,-0.0017,0.0004,158,165,171,161,0.00,0.00,-0.47,0.08,0.0000,1,1,1,0.01,0.00,0.02,0.00,0.00,0.00,0.08,126,30
362,-0.5,0.8,0.5,0.017,-0.024,-1.018,1.5,-1.5,0.0,0.0023,-0.0014,-0.0005,158,169,171,163,0.00,0.00,-0.47,0.08,0.0000,1,1,1,0.01,0.00,0.02,0.00,0.00,0.00,0.08,125,30
372,-0.3,0.2,0.0,0.011,-0.011,-1.020,1.6,-1.5,0.0,0.0019,-0.0016,0.0000,158,165,170,164,0.00,0.00,-0.47,0.08,0.0000,1,1,1,0.01,0.00,0.02,0.00,0.00,0.00,0.08,123,30
382,-0.3,0.6,-0.4,0.030,-0.015,-1.016,1.6,-1.6,0.0,0.0020,-0.0022,0.0004,158,164,174,165,0.00,0.00,-0.47,0.08,0.0000,1,1,1,0.01,0.00,0.02,0.00,0.00,0.00,0.07,125,30
392,0.6,0.4,0.4,0.016,0.000,-1.013,1.6,-1.6,0.0,0.0012,-0.0021,-0.0003,158,164,171,167,0.00,0.00,-0.47,0.08,0.0000,1,1,1,0.01,0.00,0.01,0.00,0.00,0.00,0.08,124,30
402,0.1,-0.6,0.5,0.014,-0.020,-1.021,1.6,-1.6,0.0,0.0013,-0.0013,-0.0006,158,165,168,167,0.00,0.00,-0.47,0.08,0.0000,1,1,1,0.01,0.00,0.02,0.00,0.00,0.00,0.08,125,30
413,-0.5,0.0,-0.4,0.016,-0.012,-1.008,1.6,-1.5,0.0,0.0023,-0.0014,0.0004,158,166,172,161,0.00,0.00,-0.47,0.08,0.0000,1,1,1,0.01,0.00,0.01,0.00,0.00,0.00,0.08,126,30
423,0.0,0.0,-0.6,0.011,-0.008,-1.020,1.6,-1.6,0.0,0.0015,-0.0015,0.0006,158,159,173,162,0.00,0.00,-0.47,0.08,0.0000,1,1,1,0.01,0.00,0.01,0.00,0.00,0.00,0.08,128,30
433,-0.1,0.3,0.6,-0.008,0.003,-1.019,1.6,-1.5,0.0,0.0018,-0.0018,-0.0006,158,165,171,166,0.00,0.00,-0.47,0.08,0.0000,1,1,1,0.01,0.00,0.02,0.00,0.00,0.00,0.08,127,30
443,1.5,-0.7,0.0,-0.002,0.024,-1.008,1.6,-1.5,0.0,0.0003,-0.0005,-0.0002,158,162,162,161,0.00,0.00,-0.47,0.08,0.0000,1,1,1,0.01,0.00,0.01,0.00,0.00,0.00,0.08,129,30
453,0.3,-0.7,-0.2,0.001,-0.017,-1.004,1.6,-1.5,0.0,0.0012,-0.0006,0.0002,158,163,165,159,0.00,0.00,-0.47,0.08,0.0000,1,1,1,0.01,0.00,0.01,0.00,0.00,0.00,0.08,128,30
463,-0.1,-0.8,0.0,0.002,-0.001,-1.018,1.5,-1.5,0.0,0.0017,-0.0006,0.0000,158,164,166,160,0.00,0.00,-0.47,0.08,0.0000,1,1,1,0.01,0.00,0.01,0.00,0.00,0.00,0.08,127,30
473,0.2,-1.2,0.0,0.010,-0.008,-1.011,1.5,-1.4,0.0,0.0010,0.0000,0.0000,158,162,162,158,0.00,0.00,-0.47,0.08,0.0000,1,1,1,0.01,0.00,0.01,0.00,0.00,0.00,0.08,126,30
483,0.7,-1.9,0.2,0.008,-0.002,-1.014,1.5,-1.4,0.0,0.0007,0.0004,-0.0001,159,163,160,158,0.00,0.00,-0.47,0.08,0.0000,1,1,1,0.01,0.00,0.01,0.00,0.00,0.00,0.08,128,30
493,1.1,-1.8,0.6,0.007,0.001,-1.010,1.5,-1.4,0.0,0.0003,0.0003,-0.0006,158,162,158,160,0.00,0.00,-0.47,0.08,0.0000,1,1,1,0.01,0.00,0.01,0.00,0.00,0.00,0.08,127,30
503,0.1,-1.4,0.2,0.009,-0.014,-1.015,1.4,-1.4,0.0,0.0013,0.0001,-0.0002,158,165,162,158,0.00,0.00,-0.47,0.08,0.0000,1,1,1,0.01,0.00,0.01,0.00,0.00,0.00,0.08,128,30
513,0.5,-0.2,-1.0,0.008,-0.007,-1.011,1.4,-1.4,0.0,0.0010,-0.0010,0.0009,159,160,166,158,0.00,0.00,-0.47,0.08,0.0000,1,1,1,0.01,0.00,0.01,0.00,0.00,0.00,0.08,127,30
524,-0.3,-1.0,-1.2,-0.004,0.005,-1.010,1.4,-1.4,0.0,0.0018,-0.0003,0.0012,159,159,169,158,0.00,0.00,-0.47,0.08,0.0000,1,1,1,0.01,0.00,0.01,0.00,0.00,0.00,0.08,128,30
534,0.2,-2.2,0.6,0.002,-0.013,-1.016,1.4,-1.3,0.0,0.0011,0.0006,-0.0005,158,164,161,159,0.00,0.00,-0.47,0.08,0.0000,1,1,1,0.01,0.00,0.01,0.00,0.00,0.00,0.08,127,30
544,0.8,-1.1,1.1,0.014,-0.014,-1.003,1.4,-1.3,0.0,0.0006,-0.0002,-0.0011,158,165,162,164,0.00,0.00,-0.47,0.08,0.0000,1,1,1,0.01,0.00,0.01,0.00,0.00,0.00,0.08,129,30
554,0.4,0.2,0.3,-0.006,0.016,-0.983,1.4,-1.3,0.0,0.0009,-0.0016,-0.0003,158,163,168,166,0.00,0.00,-0.47,0.08,0.0000,1,1,1,0.01,0.00,0.02,0.00,0.00,0.00,0.08,128,30
564,-1.2,1.1,-0.7,-0.014,-0.027,-1.005,1.4,-1.3,0.0,0.0026,-0.0023,0.0006,158,165,177,164,0.00,0.00,-0.47,0.08,0.0000,1,1,1,0.01,0.00,0.02,0.00,0.00,0.00,0.08,129,30
574,0.3,-0.7,-0.7,0.010,-0.018,-1.017,1.4,-1.3,0.0,0.0010,-0.0006,0.0007,158,159,164,159,0.00,0.00,-0.47,0.08,0.0000,1,1,1,0.01,0.00,0.01,0.00,0.00,0.00,0.08,128,30
584,-0.3,0.1,-0.2,0.025,-0.003,-1.003,1.4,-1.4,0.0,0.0018,-0.0015,0.0002,158,164,171,163,0.00,0.00,-0.47,0.08,0.0000,1,1,1,0.01,0.00,0.02,0.00,0.00,0.00,0.08,129,30
594,-0.7,1.0,0.1,-0.009,0.002,-1.014,1.4,-1.4,0.0,0.0023,-0.0028,-0.0002,158,168,178,170,0.00,0.00,-0.47,0.08,0.0000,1,1,1,0.01,0.00,0.02,0.00,0.00,0.00,0.08,128,30
604,-1.1,0.9,0.0,0.006,-0.035,-1.013,1.4,-1.4,0.0,0.0026,-0.0024,0.0000,158,166,177,168,0.00,0.00,-0.47,0.08,0.0000,1,1,1,0.01,0.00,0.02,0.00,0.00,0.00,0.08,127,30
614,0.1,0.7,0.5,0.019,-0.013,-1.003,1.5,-1.4,0.0,0.0017,-0.0016,-0.0003,158,166,171,165,0.00,0.00,-0.47,0.08,0.0000,1,1,1,0.01,0.00,0.02,0.00,0.00,0.00,0.08,126,30
624,-0.5,0.9,0.0,0.012,0.000,-1.022,1.5,-1.5,0.0,0.0020,-0.0024,0.0000,158,166,177,169,0.00,0.00,-0.47,0.08,0.0000,1,1,1,0.01,0.00,0.02,0.00,0.00,0.00,0.08,127,30
635,-2.1,2.2,-0.9,-0.008,-0.008,-1.027,1.5,-1.5,0.0,0.0038,-0.0036,0.0008,158,169,186,168,0.00,0.00,-0.47,0.08,0.0000,1,1,1,0.01,0.00,0.02,0.00,0.00,0.00,0.08,126,30
645,-0.4,2.0,0.0,-0.013,0.002,-1.037,1.6,-1.5,0.0,0.0021,-0.0026,0.0000,158,166,176,168,0.00,0.00,-0.47,0.08,0.0000,1,1,1,0.01,0.00,0.02,0.00,0.00,0.00,0.08,127,30
655,-0.8,0.5,0.9,0.023,-0.020,-1.014,1.6,-1.5,0.0,0.0024,-0.0021,-0.0009,158,172,173,168,0.00,0.00,-0.47,0.08,0.0000,1,1,1,0.01,0.00,0.02,0.00,0.00,0.00,0.08,128,30
665,0.3,-0.1,-0.1,0.001,0.037,-1.017,1.6,-1.6,0.0,0.0013,-0.0014,0.0001,158,163,169,162,0.00,0.00,-0.47,0.08,0.0000,1,1,1,0.01,0.00,0.02,0.00,0.00,0.00,0.08,129,30
675,-0.2,0.4,-1.0,-0.010,0.001,-1.008,1.6,-1.6,0.0,0.0018,-0.0019,0.0011,158,159,171,160,0.00,0.00,-0.47,0.08,0.0000,1,1,1,0.01,0.00,0.01,0.00,0.00,0.00,0.08,127,30
685,0.0,0.0,-1.1,0.006,-0.002,-1.005,1.6,-1.6,0.0,0.0015,-0.0017,0.0011,158,161,170,160,0.00,0.00,-0.47,0.08,0.0000,1,1,1,0.01,0.00,0.01,0.00,0.00,0.00,0.08,128,30
695,1.3,-0.1,0.5,0.015,-0.008,-1.008,1.6,-1.5,0.0,0.0003,-0.0009,-0.0007,158,162,163,165,0.00,0.00,-0.47,0.08,0.0000,1,1,1,0.01,0.00,0.01,0.00,0.00,0.00,0.08,127,30
705,0.4,-1.7,1.3,0.002,-0.021,-1.011,1.6,-1.5,0.0,0.0011,0.0002,-0.0013,158,165,163,164,0.00,0.00,-0.47,0.08,0.0000,1,1,1,0.01,0.00,0.01,0.00,0.00,0.00,0.08,126,30
715,-0.3,-0.4,-0.2,0.001,0.004,-0.994,1.5,-1.5,0.0,0.0021,-0.0002,0.0002,158,165,167,158,0.00,0.00,-0.47,0.08,0.0000,1,1,1,0.01,0.00,0.02,0.00,0.00,0.00,0.08,126,30
725,0.8,0.0,-0.3,0.011,0.001,-1.003,1.5,-1.5,0.0,0.0006,-0.0016,0.0002,158,160,167,164,0.00,0.00,-0.47,0.08,0.0000,1,1,1,0.01,0.00,0.01,0.00,0.00,0.00,0.08,127,30
735,-0.5,-0.9,-0.3,0.016,-0.035,-1.016,1.5,-1.5,0.0,0.0020,-0.0005,0.0003,158,163,168,159,0.00,0.00,-0.47,0.08,0.0000,1,1,1,0.01,0.00,0.01,0.00,0.00,0.00,0.08,126,30
746,0.0,0.5,-0.1,0.004,0.015,-1.014,1.5,-1.5,0.0,0.0016,-0.0020,0.0002,158,164,173,164,0.00,0.00,-0.47,0.08,0.0000,1,1,1,0.01,0.00,0.02,0.00,0.00,0.00,0.08,127,30
756,-0.1,0.7,0.1,0.002,-0.012,-1.026,1.5,-1.5,0.0,0.0017,-0.0022,-0.0001,158,165,173,171,0.00,0.00,-0.47,0.08,0.0000,1,1,1,0.01,0.00,0.02,0.00,0.00,0.00,0.08,128,30
766,-0.9,0.4,0.4,0.000,0.005,-1.035,1.5,-1.5,0.0,0.0025,-0.0022,-0.0005,158,170,176,168,0.00,0.00,-0.47,0.08,0.0000,1,1,1,0.01,0.00,0.02,0.00,0.00,0.00,0.08,127,30
776,0.3,1.8,0.3,0.012,0.006,-1.023,1.5,-1.5,0.0,0.0012,-0.0033,-0.0003,158,163,173,169,0.00,0.00,-0.47,0.08,0.0000,1,1,1,0.01,0.00,0.02,0.00,0.00,0.00,0.08,128,30
786,0.0,0.3,-0.9,0.000,-0.019,-1.011,1.5,-1.5,0.0,0.0016,-0.0019,0.0009,158,159,173,165,0.00,0.00,-0.47,0.08,0.0000,1,1,1,0.01,0.00,0.02,0.00,0.00,0.00,0.08,129,30
796,-0.4,1.4,-0.5,0.003,0.001,-1.004,1.5,-1.5,0.0,0.0021,-0.0027,0.0004,158,166,176,166,0.00,0.00,-0.47,0.08,0.0000,1,1,1,0.01,0.00,0.02,0.00,0.00,0.00,0.08,127,30
806,-0.5,2.0,1.3,-0.023,0.011,-1.008,1.5,-1.5,0.0,0.0021,-0.0038,-0.0012,158,170,180,176,0.00,0.00,-0.47,0.08,0.0000,1,1,1,0.01,0.00,0.02,0.00,0.00,0.00,0.08,128,30
816,-0.1,0.8,0.4,0.015,-0.011,-1.009,1.6,-1.5,0.0,0.0017,-0.0023,-0.0004,158,165,172,167,0.00,0.00,-0.47,0.08,0.0000,1,1,1,0.01,0.00,0.02,0.00,0.00,0.00,0.08,129,30
826,0.1,0.4,-0.2,0.025,-0.020,-1.008,1.6,-1.5,0.0,0.0014,-0.0020,0.0002,158,163,170,162,0.00,0.00,-0.47,0.08,0.0000,1,1,1,0.01,0.00,0.02,0.00,0.00,0.00,0.08,127,30
836,-0.3,1.0,-0.3,0.004,0.013,-1.002,1.6,-1.6,0.0,0.0018,-0.0026,0.0003,158,163,174,166,0.00,0.00,-0.47,0.08,0.0000,1,1,1,0.01,0.00,0.02,0.00,0.00,0.00,0.08,126,30
847,-0.6,1.0,-0.4,-0.033,0.018,-1.005,1.6,-1.6,0.0,0.0024,-0.0026,0.0005,158,165,178,165,0.00,0.00,-0.47,0.08,0.0000,1,1,1,0.01,0.00,0.02,0.00,0.00,0.00,0.08,128,30
857,0.3,0.5,0.6,0.014,-0.013,-1.020,1.6,-1.6,0.0,0.0013,-0.0021,-0.0006,158,165,169,167,0.00,0.00,-0.47,0.08,0.0000,1,1,1,0.01,0.00,0.02,0.00,0.00,0.00,0.07,129,30
867,1.4,-0.3,0.5,0.038,-0.007,-1.010,1.6,-1.5,0.0,0.0003,-0.0011,-0.0006,158,164,162,164,0.00,0.00,-0.47,0.08,0.0000,1,1,1,0.01,0.00,0.02,0.00,0.00,0.00,0.07,127,30
877,0.3,0.1,-0.6,0.008,0.017,-1.004,1.6,-1.5,0.0,0.0013,-0.0017,0.0006,158,161,170,162,0.00,0.00,-0.47,0.08,0.0000,1,1,1,0.01,0.00,0.02,0.00,0.00,0.00,0.07,126,30
887,-1.3,0.1,-0.6,-0.036,-0.002,-1.027,1.6,-1.5,0.0,0.0026,-0.0020,0.0008,158,163,176,163,0.00,0.00,-0.47,0.08,0.0000,1,1,1,0.01,0.00,0.01,0.00,0.00,0.00,0.07,127,30
897,0.4,0.1,0.1,0.011,-0.008,-1.034,1.5,-1.5,0.0,0.0009,-0.0013,-0.0004,158,163,167,165,0.00,0.00,-0.47,0.08,0.0000,1,1,1,0.01,0.00,0.01,0.00,0.00,0.00,0.07,126,30
907,1.3,-0.8,0.6,0.042,-0.017,-1.012,1.5,-1.5,0.0,0.0002,-0.0007,-0.0006,158,162,166,168,0.00,0.00,-0.47,0.08,0.0000,1,1,1,0.01,0.00,0.02,0.00,0.00,0.00,0.07,127,30
917,-0.6,-1.1,0.0,0.015,0.002,-1.014,1.5,-1.5,0.0,0.0023,-0.0005,0.0000,158,167,173,164,0.00,0.00,-0.47,0.08,0.0000,1,1,1,0.01,0.00,0.02,0.00,0.00,0.00,0.07,127,30
927,-0.8,2.5,0.6,-0.016,0.002,-1.006,1.5,-1.5,0.0,0.0023,-0.0041,-0.0006,158,169,182,176,0.00,0.00,-0.47,0.08,0.0000,1,1,1,0.01,0.00,0.02,0.00,0.00,0.00,0.07,128,30
937,0.9,0.0,0.3,-0.010,-0.011,-1.003,1.5,-1.5,0.0,0.0005,-0.0014,-0.0003,158,159,166,167,0.00,0.00,-0.47,0.08,0.0000,1,1,1,0.01,0.00,0.01,0.00,0.00,0.00,0.07,126,30
947,0.2,0.2,-1.1,0.027,-0.025,-1.004,1.5,-1.4,0.0,0.0013,-0.0015,0.0014,158,158,169,159,0.00,0.00,-0.47,0.08,0.0000,1,1,1,0.01,0.00,0.02,0.00,0.00,0.00,0.07,128,30
958,-0.2,3.4,-0.5,0.011,0.001,-1.006,1.5,-1.5,0.0,0.0018,-0.0049,0.0005,158,165,189,177,0.00,0.00,-0.47,0.08,0.0000,1,1,1,0.01,0.00,0.02,0.00,0.00,0.00,0.07,126,30
968,-1.4,1.8,0.7,-0.013,-0.013,-1.013,1.5,-1.5,0.0,0.0028,-0.0034,-0.0008,158,170,179,176,0.00,0.00,-0.47,0.08,0.0000,1,1,1,0.01,0.00,0.02,0.00,0.00,0.00,0.07,127,30
978,-0.3,0.6,1.4,0.010,0.007,-1.030,1.5,-1.4,0.0,0.0020,-0.0015,-0.0012,158,171,172,169,0.00,0.00,-0.47,0.07,0.0000,1,1,1,0.01,0.00,0.02,0.00,0.00,0.00,0.07,125,30
988,1.2,2.3,-1.7,0.010,-0.007,-1.014,1.5,-1.5,0.0,0.0002,-0.0039,0.0017,165,158,182,173,0.00,0.00,-0.47,0.07,0.0000,1,1,1,0.01,0.00,0.02,0.00,0.00,0.00,0.07,126,30
998,-0.9,1.6,-2.1,0.000,-0.015,-1.001,1.5,-1.5,0.0,0.0024,-0.0036,0.0020,158,160,181,165,0.00,0.00,-0.47,0.07,0.0000,1,1,1,0.01,0.00,0.02,0.00,0.00,0.00,0.07,124,30
1008,-0.8,2.4,1.0,-0.009,-0.010,-1.010,1.5,-1.5,0.0,0.0024,-0.0038,-0.0012,158,173,180,176,0.00,0.00,-0.47,0.07,0.0000,1,1,1,0.01,0.00,0.02,0.00,0.00,0.00,0.07,126,30
1018,-0.5,1.6,1.3,-0.012,0.005,-1.006,1.5,-1.5,0.0,0.0021,-0.0032,-0.0013,158,169,179,176,0.00,0.00,-0.47,0.07,0.0000,1,1,1,0.01,0.00,0.02,0.00,0.00,0.00,0.07,124,30
1028,-0.1,1.2,-0.2,0.021,-0.001,-0.997,1.6,-1.5,0.0,0.0018,-0.0029,0.0007,158,162,176,166,0.00,0.00,-0.47,0.07,0.0000,1,1,1,0.01,0.00,0.02,0.00,0.00,0.00,0.07,125,30
1038,0.2,0.6,-1.8,0.011,-0.009,-0.988,1.6,-1.5,0.0,0.0014,-0.0022,0.0018,158,158,173,162,0.00,0.00,-0.47,0.07,0.0000,1,1,1,0.01,0.00,0.02,0.00,0.00,0.00,0.07,124,30
1048,-0.7,0.8,-0.5,-0.008,0.000,-1.012,1.6,-1.6,0.0,0.0022,-0.0024,0.0002,158,166,175,167,0.00,0.00,-0.47,0.07,0.0000,1,1,1,0.01,0.00,0.02,0.00,0.00,0.00,0.07,126,30
1058,0.1,0.6,0.9,0.007,0.003,-1.017,1.6,-1.6,0.0,0.0014,-0.0023,-0.0008,158,167,173,170,0.00,0.00,-0.47,0.07,0.0000,1,1,1,0.01,0.00,0.02,0.00,0.00,0.00,0.07,125,30
1069,-0.1,-0.1,0.0,0.031,-0.004,-1.007,1.6,-1.6,0.0,0.0018,-0.0014,0.0000,158,163,165,161,0.00,0.00,-0.47,0.07,0.0000,1,1,1,0.01,0.00,0.02,0.00,0.00,0.00,0.07,126,30
1079,0.7,0.3,0.2,0.011,-0.015,-1.011,1.6,-1.6,0.0,0.0011,-0.0019,-0.0002,158,163,170,166,0.00,0.00,-0.47,0.07,0.0000,1,1,1,0.01,0.00,0.02,0.00,0.00,0.00,0.07,125,30
1089,0.1,-0.1,-0.7,0.000,0.000,-1.005,1.6,-1.6,0.0,0.0015,-0.0014,0.0007,158,159,170,162,0.00,0.00,-0.47,0.07,0.0000,1,1,1,0.01,0.00,0.02,0.00,0.00,0.00,0.07,126,30
1099,-0.8,0.9,-1.0,0.000,-0.010,-0.998,1.6,-1.5,0.0,0.0024,-0.0025,0.0010,158,163,177,163,0.00,0.00,-0.47,0.07,0.0000,1,1,1,0.01,0.00,0.02,0.00,0.00,0.00,0.07,125,30
1109,0.0,0.0,0.1,0.014,-0.019,-1.008,1.6,-1.5,0.0,0.0016,-0.0016,-0.0001,158,165,173,169,0.00,0.00,-0.47,0.07,0.0000,1,1,1,0.01,0.00,0.02,0.00,0.00,0.00,0.07,124,30
1119,-0.2,-2.7,0.5,0.017,-0.020,-1.005,1.6,-1.5,0.0,0.0017,0.0003,-0.0004,158,165,165,161,0.00,0.00,-0.47,0.07,0.0000,1,1,1,0.01,0.00,0.02,0.00,0.00,0.00,0.07,123,30
#
# chuyen bay moi, moc boot_ms = 31481
#   nhip Hz = 100
10,0.0,0.0,0.0,0.004,-0.003,-1.010,1.6,-1.6,-1.2,0.0017,-0.0016,-0.0011,338,349,351,349,0.00,0.00,-0.49,0.06,0.1000,2,1,0,0.01,0.00,0.02,-0.01,0.00,0.00,0.07,127,30
20,0.0,0.0,0.0,0.005,-0.003,-1.010,1.6,-1.6,-1.2,0.0017,-0.0016,-0.0012,338,349,351,349,0.00,0.00,-0.49,0.06,0.1000,2,1,0,0.01,0.00,0.02,-0.01,0.00,0.00,0.07,129,30
30,0.0,0.0,0.0,0.006,-0.005,-1.011,1.6,-1.6,-1.2,0.0017,-0.0016,-0.0012,338,349,351,349,0.00,0.00,-0.49,0.06,0.1000,2,1,0,0.01,0.00,0.02,-0.01,0.00,0.00,0.07,128,30
40,0.0,0.0,0.0,0.004,-0.005,-1.010,1.6,-1.6,-1.2,0.0017,-0.0016,-0.0012,338,349,351,349,0.00,0.00,-0.49,0.06,0.1000,2,1,0,0.01,0.00,0.02,-0.01,0.00,0.00,0.07,129,30
50,0.0,0.0,0.0,0.005,-0.005,-1.010,1.6,-1.6,0.0,0.0016,-0.0017,0.0000,341,347,353,347,0.00,0.00,-0.49,0.06,0.1000,2,1,0,0.01,0.00,0.02,-0.01,0.00,0.00,0.07,127,30
60,0.0,0.0,0.0,0.006,-0.004,-1.010,1.6,-1.6,0.0,0.0016,-0.0016,0.0000,341,347,353,347,0.00,0.00,-0.49,0.06,0.1000,2,1,0,0.01,0.00,0.02,-0.01,0.00,0.00,0.07,128,30
70,0.0,0.0,0.0,0.007,-0.004,-1.011,1.6,-1.6,0.0,0.0016,-0.0016,0.0000,340,347,353,347,0.00,0.00,-0.49,0.06,0.1000,2,1,0,0.01,0.00,0.02,-0.01,0.00,0.00,0.07,127,30
80,0.0,0.0,0.0,0.006,-0.005,-1.010,1.6,-1.6,0.0,0.0017,-0.0016,0.0000,340,347,353,347,0.00,0.00,-0.49,0.06,0.1000,2,1,0,0.01,0.00,0.02,-0.01,0.00,0.00,0.07,128,30
90,-0.1,0.0,0.0,0.005,-0.005,-1.011,1.6,-1.6,0.0,0.0018,-0.0017,0.0000,340,347,354,347,0.00,0.00,-0.49,0.06,0.1000,2,1,0,0.01,0.00,0.02,-0.01,0.00,0.00,0.07,129,30
101,0.0,0.0,0.0,0.005,-0.004,-1.011,1.6,-1.6,0.0,0.0017,-0.0016,0.0000,340,347,354,347,0.00,0.00,-0.49,0.06,0.1000,2,1,0,0.01,0.00,0.02,-0.01,0.00,0.00,0.07,130,30
111,0.0,0.0,0.0,0.003,-0.003,-1.010,1.6,-1.6,0.0,0.0016,-0.0017,0.0000,341,347,353,347,0.00,0.00,-0.49,0.06,0.1000,2,1,0,0.01,0.00,0.02,-0.01,0.00,0.00,0.07,128,30
121,-0.2,-1.2,-13.9,-0.014,-0.036,-0.997,1.6,-1.6,0.0,0.0019,-0.0003,0.0139,365,327,373,321,0.00,0.00,-0.49,0.06,0.1000,2,1,0,0.01,0.00,0.02,-0.01,0.00,0.00,0.07,129,30
131,0.2,-0.7,5.5,0.035,0.065,-1.009,1.7,-1.7,0.0,0.0014,-0.0010,-0.0057,330,358,340,359,0.00,0.00,-0.49,0.06,0.1000,2,1,0,0.01,0.00,0.02,-0.01,0.00,0.00,0.07,130,30
141,0.5,1.4,16.3,-0.004,-0.009,-0.995,1.7,-1.6,0.0,0.0011,-0.0031,-0.0163,309,373,326,379,0.00,0.00,-0.49,0.06,0.1000,2,1,0,0.01,0.00,0.02,-0.01,0.00,0.00,0.07,130,30
151,2.0,0.1,-3.8,-0.043,-0.088,-0.943,1.5,-1.4,0.0,-0.0008,-0.0012,0.0033,353,338,352,344,0.00,0.00,-0.48,0.06,0.1000,2,1,0,0.01,0.00,0.02,-0.01,0.00,0.00,0.07,129,30
161,1.7,-0.4,-3.6,0.059,0.115,-0.993,1.4,-1.4,0.0,-0.0002,-0.0009,0.0036,351,336,357,343,0.00,0.00,-0.49,0.06,0.1000,2,1,0,0.01,0.00,0.02,0.00,0.00,0.00,0.07,130,30
171,-2.0,0.2,-9.7,0.049,0.053,-0.985,1.6,-1.5,0.0,0.0037,-0.0009,0.0097,357,334,374,323,0.00,0.00,-0.49,0.06,0.1000,2,1,0,0.01,0.00,0.01,-0.01,0.00,0.00,0.07,129,30
181,-1.2,3.8,-4.2,-0.036,-0.136,-0.946,1.7,-1.6,0.0,0.0028,-0.0058,0.0039,337,335,370,346,0.00,0.00,-0.49,0.06,0.1000,2,1,0,0.01,0.00,0.02,-0.01,0.00,0.00,0.07,127,30
192,2.8,-3.1,2.8,-0.011,0.015,-1.002,1.4,-1.5,0.0,-0.0016,0.0006,-0.0029,344,349,338,356,0.00,0.00,-0.49,0.06,0.1000,2,1,0,0.01,0.00,0.02,0.00,0.00,0.00,0.07,128,30
202,-0.8,2.0,4.2,0.046,0.067,-0.992,1.5,-1.4,0.0,0.0026,-0.0039,-0.0041,327,352,352,357,0.00,0.00,-0.49,0.06,0.1000,2,1,0,0.01,0.00,0.02,-0.01,0.00,0.00,0.07,129,30
212,-1.5,0.8,3.3,-0.059,0.018,-0.947,1.6,-1.4,0.0,0.0032,-0.0023,-0.0033,329,355,351,352,0.00,0.00,-0.49,0.06,0.1000,2,1,0,0.01,0.00,0.02,-0.01,0.00,0.00,0.07,128,30
222,1.8,-1.8,2.6,-0.034,-0.073,-0.960,1.5,-1.5,0.0,-0.0003,0.0000,-0.0025,343,351,341,352,0.00,0.00,-0.49,0.06,0.1000,2,1,0,0.01,0.00,0.02,0.00,0.00,0.00,0.07,129,30
232,0.3,-0.3,0.7,0.049,0.011,-0.970,1.4,-1.4,0.0,0.0011,-0.0010,-0.0007,337,347,353,350,0.00,0.00,-0.49,0.06,0.1000,2,1,0,0.01,0.00,0.02,0.00,0.00,0.00,0.07,130,30
242,-2.7,4.1,-2.9,0.018,0.060,-0.973,1.5,-1.4,0.0,0.0040,-0.0061,0.0029,333,337,372,346,0.00,0.00,-0.49,0.06,0.1000,2,1,0,0.01,0.00,0.02,-0.01,0.00,0.00,0.07,129,30
252,-3.2,5.0,-4.3,-0.044,-0.051,-0.971,1.6,-1.6,0.0,0.0049,-0.0067,0.0043,336,337,375,340,0.00,0.00,-0.49,0.06,0.1000,2,1,0,0.01,0.00,0.02,-0.01,0.00,0.00,0.07,128,30
262,0.1,0.9,-1.2,-0.012,0.007,-0.993,1.6,-1.6,0.0,0.0016,-0.0026,0.0012,339,342,361,345,0.00,0.00,-0.49,0.06,0.1000,2,1,0,0.01,0.00,0.02,0.00,0.00,0.00,0.07,129,30
272,2.8,-3.6,-0.2,0.029,0.078,-0.940,1.6,-1.5,0.0,-0.0007,0.0025,0.0001,353,350,341,343,0.00,0.00,-0.49,0.06,0.1000,2,1,0,0.01,0.00,0.02,0.00,0.00,0.00,0.07,130,30
282,-2.7,4.3,1.3,-0.001,-0.037,-0.929,1.7,-1.6,0.0,0.0045,-0.0056,-0.0013,328,350,359,350,0.00,0.00,-0.49,0.06,0.1000,2,1,0,0.01,0.00,0.02,-0.01,0.00,0.00,0.07,129,30
293,-1.4,1.5,3.2,-0.025,0.025,-0.988,1.7,-1.6,0.0,0.0043,-0.0030,-0.0028,327,355,356,348,0.00,0.00,-0.49,0.06,0.1000,2,1,0,0.01,0.00,0.02,-0.01,0.00,0.00,0.07,130,30
303,5.2,-4.3,3.2,0.019,0.004,-0.980,1.6,-1.5,0.0,-0.0036,0.0027,-0.0032,355,353,326,352,0.00,0.00,-0.49,0.06,0.1000,2,1,0,0.01,0.00,0.02,-0.01,0.00,0.00,0.07,131,30
313,-1.1,2.9,0.6,0.032,0.005,-0.942,1.6,-1.5,0.0,0.0027,-0.0045,-0.0006,335,349,356,347,0.00,0.00,-0.49,0.06,0.1000,2,1,0,0.01,0.00,0.02,0.00,0.00,0.00,0.07,129,30
323,0.1,1.3,-2.1,-0.018,0.098,-0.953,1.6,-1.6,0.0,0.0015,-0.0030,0.0021,339,340,362,346,0.00,0.00,-0.49,0.06,0.1000,2,1,0,0.01,0.00,0.02,-0.01,0.00,0.00,0.07,128,30
333,0.6,0.4,-2.5,-0.049,-0.090,-0.882,1.6,-1.5,0.0,0.0000,-0.0012,0.0027,352,339,352,344,0.00,0.00,-0.49,0.06,0.1000,2,1,0,0.01,0.00,0.02,-0.01,0.00,0.00,0.07,129,30
343,0.2,1.5,0.0,0.054,-0.101,-0.981,1.6,-1.5,0.0,0.0013,-0.0031,0.0000,343,342,354,347,0.00,0.00,-0.49,0.06,0.1000,2,1,0,0.01,0.00,0.02,0.00,0.00,0.00,0.07,129,30
353,-1.2,0.3,0.8,0.033,0.030,-0.966,1.6,-1.6,0.0,0.0034,-0.0022,-0.0004,335,350,358,345,0.00,0.00,-0.49,0.06,0.1000,2,1,0,0.01,0.00,0.02,-0.01,0.00,0.00,0.07,130,30
363,0.0,-3.2,2.1,-0.008,0.132,-0.943,1.7,-1.6,0.0,0.0019,0.0011,-0.0022,335,356,349,348,0.00,0.00,-0.49,0.06,0.1000,2,1,0,0.01,0.00,0.02,-0.01,0.00,0.00,0.07,131,30
374,0.0,-5.7,2.0,-0.058,-0.080,-1.013,1.6,-1.5,0.0,0.0002,0.0048,-0.0020,354,358,333,343,0.00,0.00,-0.49,0.06,0.1000,2,1,0,0.01,0.00,0.02,-0.01,0.00,0.00,0.07,130,30
384,-0.3,1.0,1.0,-0.007,-0.146,-0.854,1.6,-1.5,0.0,0.0019,-0.0022,-0.0009,338,348,353,349,0.00,0.00,-0.49,0.06,0.1000,2,1,0,0.01,0.00,0.02,0.00,0.00,0.00,0.07,132,30
394,-0.6,-0.4,2.2,0.136,0.072,-1.063,1.7,-1.7,0.0,0.0024,-0.0013,-0.0022,326,349,359,352,0.00,0.00,-0.49,0.06,0.1000,2,1,0,0.01,0.00,0.02,0.00,0.00,0.00,0.07,132,30
404,1.9,-9.8,1.5,0.008,0.141,-1.069,1.7,-1.6,0.0,0.0009,0.0087,-0.0022,355,370,330,332,0.00,0.00,-0.49,0.06,0.1000,2,1,0,0.01,0.00,0.02,-0.01,0.00,0.00,0.07,133,30
414,1.8,-4.9,-2.9,-0.096,-0.058,-0.923,1.6,-1.5,0.0,-0.0001,0.0033,0.0029,371,355,329,332,0.00,0.00,-0.49,0.06,0.1000,2,1,0,0.01,0.00,0.02,-0.01,0.00,0.00,0.07,131,30
424,-3.9,5.9,-0.8,-0.076,-0.208,-1.088,1.6,-1.6,0.0,0.0057,-0.0076,0.0008,333,347,365,343,0.00,0.00,-0.49,0.06,0.1000,2,1,0,0.01,0.00,0.02,0.00,0.00,0.00,0.07,132,30
434,5.5,-4.1,-0.4,0.191,0.250,-1.133,1.7,-1.7,0.0,-0.0037,0.0023,0.0004,335,337,362,354,0.00,0.00,-0.49,0.06,0.1000,2,1,0,0.01,0.00,0.02,-0.01,0.00,0.00,0.07,130,30
444,7.5,-13.3,-2.0,0.101,0.201,-0.926,1.5,-1.5,0.0,-0.0058,0.0118,0.0020,389,351,316,332,0.00,0.00,-0.49,0.06,0.1000,2,1,0,0.01,0.00,0.02,-0.01,0.00,0.00,0.07,131,30
454,-7.7,5.7,3.5,-0.237,-0.430,-0.818,1.4,-1.3,0.0,0.0093,-0.0072,-0.0035,341,360,344,342,0.00,0.00,-0.49,0.06,0.1000,2,1,0,0.01,0.00,0.02,-0.01,0.00,0.00,0.07,129,30
464,-8.3,12.4,1.6,0.004,-0.083,-0.997,1.5,-1.5,0.0,0.0099,-0.0141,-0.0016,286,349,397,356,0.00,0.00,-0.49,0.06,0.1000,2,1,0,0.01,0.00,0.02,0.00,0.00,0.00,0.07,130,30
475,11.7,-10.0,-1.3,0.150,0.421,-1.046,1.4,-1.5,0.0,-0.0062,0.0050,0.0008,358,345,337,346,0.00,0.00,-0.49,0.06,0.1000,2,1,0,0.01,0.00,0.02,-0.01,0.00,0.00,0.07,128,30
485,5.1,-4.7,1.0,-0.015,-0.097,-1.055,1.3,-1.2,0.0,-0.0037,0.0033,-0.0010,386,359,307,335,0.00,0.00,-0.49,0.06,0.1000,2,1,0,0.01,0.00,0.02,-0.01,0.00,0.00,0.07,130,30
495,-10.3,14.2,0.6,-0.206,-0.313,-1.108,1.3,-1.4,0.0,0.0118,-0.0156,-0.0005,296,341,396,354,0.00,0.00,-0.49,0.06,0.1000,2,1,0,0.01,0.00,0.02,0.00,0.00,0.00,0.07,129,30
505,5.9,-7.3,-3.7,0.175,0.299,-1.057,1.3,-1.5,0.0,-0.0036,0.0044,0.0038,348,337,361,342,0.00,0.00,-0.49,0.06,0.1000,2,1,0,0.01,0.00,0.02,0.00,0.00,0.00,0.07,130,30
515,7.9,-2.0,2.1,0.040,-0.035,-0.884,1.3,-1.3,0.0,-0.0082,0.0064,-0.0020,378,354,308,347,0.00,0.00,-0.49,0.06,0.1000,2,1,0,0.01,0.00,0.02,-0.01,0.00,0.00,0.07,128,30
525,-7.6,13.7,2.9,-0.172,-0.268,-0.899,1.3,-1.4,0.0,0.0078,-0.0126,-0.0034,307,348,373,359,0.00,0.00,-0.49,0.06,0.1000,2,1,0,0.01,0.00,0.02,0.00,0.00,0.00,0.07,129,30
535,2.9,-3.5,-2.1,0.127,0.291,-1.149,1.3,-1.5,0.0,-0.0014,0.0019,0.0021,346,336,356,350,0.00,0.00,-0.49,0.06,0.1000,2,1,0,0.01,0.00,0.02,-0.01,0.00,0.00,0.07,127,30
545,-1.2,-5.2,2.0,-0.010,-0.124,-1.052,1.2,-1.3,0.0,0.0020,0.0043,-0.0020,354,360,331,342,0.00,0.00,-0.49,0.06,0.1000,2,1,0,0.01,0.00,0.02,-0.01,0.00,0.00,0.07,128,30
555,-0.4,5.3,-0.7,-0.029,-0.008,-0.956,1.2,-1.4,0.0,0.0017,-0.0069,0.0007,330,346,361,351,0.00,0.00,-0.49,0.06,0.1000,2,1,0,0.01,0.00,0.02,-0.01,0.00,0.00,0.07,127,30
565,4.5,0.2,-1.4,-0.024,0.088,-1.035,1.1,-1.3,0.0,-0.0032,-0.0017,0.0014,354,334,347,352,0.00,0.00,-0.49,0.06,0.1000,2,1,0,0.01,0.00,0.02,-0.01,0.00,0.00,0.07,128,30
575,-3.2,1.1,0.4,0.022,-0.030,-1.054,1.2,-1.3,0.0,0.0043,-0.0020,-0.0003,342,353,351,341,0.00,0.00,-0.49,0.06,0.1000,2,1,0,0.01,0.00,0.02,-0.01,0.00,0.00,0.07,127,30
586,-0.7,-1.1,-0.6,-0.027,-0.015,-0.938,1.2,-1.4,0.0,0.0020,-0.0003,0.0006,335,349,361,341,0.00,0.00,-0.49,0.06,0.1000,2,1,0,0.01,0.00,0.02,-0.01,0.00,0.00,0.07,129,30
596,4.4,-7.2,1.4,0.014,0.097,-0.984,1.2,-1.3,0.0,-0.0030,0.0061,-0.0007,362,353,332,341,0.00,0.00,-0.49,0.06,0.1000,2,1,0,0.01,0.00,0.02,-0.01,0.00,0.00,0.07,130,30
606,-2.3,6.9,2.4,-0.017,-0.199,-1.074,1.1,-1.3,0.0,0.0036,-0.0084,-0.0024,334,344,344,366,0.00,0.00,-0.49,0.06,0.1000,2,1,0,0.01,0.00,0.02,-0.01,0.00,0.00,0.07,130,30
616,-2.0,3.2,-4.7,0.103,0.069,-0.970,1.2,-1.4,0.0,0.0046,-0.0078,0.0044,327,331,382,347,0.00,0.00,-0.49,0.06,0.1000,2,1,0,0.01,0.00,0.02,-0.01,0.00,0.00,0.07,128,30
626,5.4,-7.8,-0.1,-0.007,0.103,-1.062,1.2,-1.3,0.0,-0.0039,0.0072,0.0005,374,356,327,331,0.00,0.00,-0.49,0.06,0.1000,2,1,0,0.01,0.00,0.02,-0.01,0.00,0.00,0.07,129,30
636,-7.8,11.6,1.3,-0.169,-0.209,-0.959,1.2,-1.4,0.0,0.0096,-0.0116,-0.0022,304,350,380,353,0.00,0.00,-0.49,0.06,0.1000,2,1,0,0.01,0.00,0.02,-0.01,0.00,0.00,0.07,127,30
646,6.1,-10.9,-1.5,0.234,0.174,-1.009,1.2,-1.5,0.0,-0.0046,0.0079,0.0014,356,341,340,350,0.00,0.00,-0.49,0.06,0.1000,2,1,0,0.01,0.00,0.02,-0.01,0.00,0.00,0.07,126,30
656,-2.6,-4.4,-0.2,-0.041,-0.112,-1.137,1.2,-1.3,0.0,0.0040,0.0029,0.0002,358,356,339,334,0.00,0.00,-0.49,0.06,0.1000,2,1,0,0.01,0.00,0.02,-0.01,0.00,0.00,0.07,125,30
666,-6.5,15.8,1.6,-0.071,-0.022,-1.011,1.4,-1.5,0.0,0.0113,-0.0182,-0.0019,286,342,400,360,0.00,0.00,-0.49,0.06,0.1000,2,1,0,0.01,0.00,0.02,-0.01,0.00,0.00,0.07,126,30
677,9.9,-11.5,-0.6,0.108,0.210,-0.900,1.3,-1.5,0.0,-0.0084,0.0099,0.0006,361,346,337,343,0.00,0.00,-0.49,0.06,0.1000,2,1,0,0.01,0.00,0.02,-0.01,0.00,0.00,0.07,125,30
687,-2.0,-2.4,1.3,-0.020,-0.154,-1.032,1.3,-1.4,0.0,0.0034,0.0009,-0.0013,357,349,336,345,0.00,0.00,-0.49,0.06,0.1000,2,1,0,0.01,0.00,0.02,-0.01,0.00,0.00,0.07,124,30
697,-6.7,9.4,0.1,-0.005,-0.084,-1.037,1.4,-1.6,0.0,0.0082,-0.0112,-0.0001,297,330,389,372,0.00,0.00,-0.49,0.06,0.1000,2,1,0,0.01,0.00,0.02,-0.01,0.00,0.00,0.07,126,30
707,7.3,-7.8,-4.1,0.112,0.190,-1.031,1.3,-1.4,0.0,-0.0058,0.0062,0.0040,372,345,338,332,0.00,0.00,-0.49,0.06,0.1000,2,1,0,0.01,0.00,0.02,-0.01,0.00,0.00,0.07,127,30
717,0.8,7.8,2.6,-0.173,-0.079,-1.042,1.3,-1.3,0.0,0.0004,-0.0034,-0.0018,345,352,344,346,0.00,0.00,-0.49,0.06,0.1000,2,1,0,0.01,0.00,0.02,-0.01,0.00,0.00,0.07,126,30
727,-1.7,0.4,-1.2,0.058,-0.030,-0.932,1.3,-1.5,0.0,0.0032,-0.0020,0.0012,327,338,367,354,0.00,0.00,-0.49,0.06,0.1000,2,1,0,0.01,0.00,0.02,-0.01,0.00,0.00,0.07,127,30
737,1.1,-14.8,-2.3,0.154,-0.001,-0.999,1.2,-1.4,0.0,-0.0015,0.0130,0.0025,380,359,324,325,0.00,0.00,-0.49,0.06,0.1000,2,1,0,0.01,0.00,0.02,-0.01,0.00,0.00,0.07,128,30
747,-4.4,10.3,3.7,-0.197,-0.173,-1.024,1.3,-1.4,0.0,0.0066,-0.0110,-0.0036,309,351,372,355,0.00,0.00,-0.49,0.06,0.1000,2,1,0,0.01,0.00,0.02,-0.01,0.00,0.00,0.07,127,30
757,8.9,1.6,-1.0,0.102,0.285,-1.030,1.2,-1.4,0.0,-0.0069,-0.0045,0.0008,334,326,359,368,0.00,0.00,-0.49,0.06,0.1000,2,1,0,0.01,0.00,0.02,-0.01,0.00,0.00,0.07,128,30
767,2.8,-9.0,-0.3,0.045,-0.090,-1.010,1.1,-1.2,0.0,-0.0065,0.0085,0.0011,384,343,315,345,0.00,0.00,-0.49,0.06,0.1000,2,1,0,0.01,0.00,0.02,-0.01,0.00,0.00,0.07,129,30
778,-15.1,8.2,2.4,-0.114,-0.233,-1.025,1.1,-1.3,0.0,0.0165,-0.0097,-0.0024,297,360,385,345,0.00,0.00,-0.49,0.06,0.1000,2,1,0,0.01,0.00,0.02,-0.01,0.00,0.00,0.07,128,30
788,5.3,-9.5,-3.3,0.100,0.259,-0.949,1.2,-1.3,0.0,-0.0021,0.0075,0.0033,350,357,354,326,0.00,0.00,-0.49,0.06,0.1000,2,1,0,0.01,0.00,0.02,-0.01,0.00,0.00,0.07,126,30
798,8.4,-0.1,0.8,-0.005,-0.031,-1.086,1.0,-1.1,0.0,-0.0072,-0.0011,-0.0008,379,345,317,346,0.00,0.00,-0.49,0.06,0.1000,2,1,0,0.01,0.00,0.02,-0.01,0.00,0.00,0.07,127,30
808,-6.2,15.9,1.6,-0.144,-0.141,-1.029,1.2,-1.4,0.0,0.0071,-0.0180,-0.0020,298,331,384,376,0.00,0.00,-0.49,0.06,0.1000,2,1,0,0.01,0.00,0.02,-0.01,0.00,0.00,0.07,128,30
818,2.6,-16.2,-5.4,0.216,0.147,-0.981,1.1,-1.4,0.0,0.0000,0.0080,0.0054,372,352,342,321,0.00,0.00,-0.49,0.06,0.1000,2,1,0,0.01,0.00,0.02,-0.01,0.00,0.00,0.07,126,30
828,-1.6,-12.0,4.7,-0.039,-0.122,-1.005,1.2,-1.2,0.0,0.0029,0.0107,-0.0047,370,381,315,322,0.00,0.00,-0.49,0.06,0.1000,2,1,0,0.01,0.00,0.02,-0.01,0.00,0.00,0.07,125,30
838,-3.7,23.6,2.3,-0.133,-0.186,-1.022,1.2,-1.3,0.0,0.0053,-0.0216,-0.0048,291,335,380,381,0.00,0.00,-0.49,0.06,0.1000,2,1,0,0.01,0.00,0.02,0.00,0.00,0.00,0.07,126,30
848,8.9,3.2,-7.9,0.141,0.398,-1.095,1.2,-1.4,0.0,-0.0075,-0.0070,0.0076,357,305,363,363,0.00,0.00,-0.49,0.06,0.1000,2,1,0,0.01,0.00,0.02,-0.01,0.00,0.00,0.07,125,30
858,-4.8,-6.9,3.5,-0.019,-0.216,-1.001,1.2,-1.2,0.0,0.0035,0.0083,-0.0016,362,368,330,328,0.00,0.00,-0.49,0.06,0.1000,2,1,0,0.01,0.00,0.02,-0.01,0.00,0.00,0.07,126,30
868,-13.4,4.4,1.2,-0.153,-0.095,-0.962,1.3,-1.5,0.0,0.0157,-0.0064,-0.0013,297,365,391,334,0.00,0.00,-0.49,0.06,0.1000,2,1,0,0.01,0.00,0.02,0.00,0.00,0.00,0.07,127,30
878,10.2,-12.3,-2.0,0.205,0.171,-0.981,1.2,-1.5,0.0,-0.0088,0.0107,0.0020,374,340,328,345,0.00,0.00,-0.49,0.06,0.1000,2,1,0,0.01,0.00,0.02,-0.01,0.00,0.00,0.07,128,30
889,0.8,2.3,2.8,-0.013,-0.137,-1.067,1.2,-1.4,0.0,-0.0021,-0.0006,-0.0027,352,349,332,355,0.00,0.00,-0.49,0.06,0.1000,2,1,0,0.01,0.00,0.02,-0.01,0.00,0.00,0.07,126,30
899,-5.2,20.1,-1.5,-0.136,-0.046,-0.990,1.4,-1.6,0.0,0.0093,-0.0231,0.0008,285,324,409,369,0.00,0.00,-0.49,0.06,0.1000,2,1,0,0.01,0.00,0.02,-0.01,0.00,0.00,0.07,127,30
909,6.4,-10.7,-3.5,0.154,0.258,-1.124,1.3,-1.5,0.0,-0.0037,0.0062,0.0042,367,341,344,335,0.00,0.00,-0.49,0.06,0.1000,2,1,0,0.01,0.00,0.02,-0.01,0.00,0.00,0.07,126,30
919,-1.7,-0.5,3.4,-0.041,-0.201,-1.070,1.3,-1.4,0.0,0.0032,-0.0011,-0.0034,348,355,337,348,0.00,0.00,-0.49,0.06,0.1000,2,1,0,0.01,0.00,0.02,-0.01,0.00,0.00,0.07,128,30
929,-0.9,8.9,1.1,0.034,-0.019,-0.829,1.3,-1.7,0.0,0.0024,-0.0108,-0.0011,309,328,380,371,0.00,0.00,-0.49,0.06,0.1000,2,1,0,0.01,0.00,0.02,-0.01,0.00,0.00,0.07,127,30
939,4.0,-6.3,-2.1,0.063,0.126,-1.003,1.3,-1.4,0.0,-0.0031,0.0077,0.0015,373,355,326,334,0.00,0.00,-0.49,0.06,0.1000,2,1,0,0.01,0.00,0.02,-0.01,0.00,0.00,0.07,128,30
949,-8.5,11.9,-0.4,-0.144,-0.256,-0.984,1.3,-1.5,0.0,0.0100,-0.0103,0.0003,315,350,380,343,0.00,0.00,-0.49,0.06,0.1000,2,1,0,0.01,0.00,0.02,-0.01,0.00,0.00,0.07,127,30
959,6.9,-12.2,-1.7,0.119,0.297,-1.047,1.2,-1.5,0.0,-0.0056,0.0105,0.0017,347,342,350,349,0.00,0.00,-0.49,0.06,0.1000,2,1,0,0.01,0.00,0.02,-0.01,0.00,0.00,0.07,128,30
969,2.4,-12.8,-0.2,0.029,-0.083,-1.035,1.2,-1.3,0.0,-0.0010,0.0113,0.0002,385,358,312,332,0.00,0.00,-0.49,0.06,0.1000,2,1,0,0.01,0.00,0.02,-0.02,0.00,0.00,0.07,127,30
980,-10.3,18.5,2.3,-0.091,-0.246,-1.017,1.2,-1.5,0.0,0.0127,-0.0196,-0.0027,285,341,398,364,0.00,0.00,-0.49,0.06,0.1000,2,1,0,0.01,0.00,0.02,-0.01,0.00,0.00,0.07,128,30
990,9.9,-4.7,-2.6,0.108,0.417,-0.959,1.2,-1.4,0.0,-0.0086,0.0031,0.0026,336,336,367,348,0.00,0.00,-0.49,0.06,0.1000,2,1,0,0.01,0.00,0.02,-0.01,0.00,0.00,0.07,127,30
1000,9.2,-5.7,2.4,-0.004,-0.093,-1.001,1.0,-1.1,0.0,-0.0110,0.0087,-0.0014,390,347,300,349,0.00,0.00,-0.49,0.06,0.1000,2,1,0,0.01,0.00,0.02,-0.01,0.00,0.00,0.07,127,30
1010,-13.8,14.8,1.0,-0.198,-0.278,-1.027,1.1,-1.4,0.0,0.0151,-0.0164,-0.0010,283,337,402,365,0.00,0.00,-0.49,0.06,0.1000,2,1,0,0.01,0.00,0.02,-0.01,0.00,0.00,0.07,129,30
1020,9.1,-21.8,-2.0,0.298,0.289,-1.011,1.1,-1.2,0.0,-0.0057,0.0164,0.0016,380,360,318,329,0.00,0.00,-0.49,0.06,0.1000,2,1,0,0.01,0.00,0.02,-0.01,0.00,0.00,0.07,128,30
1030,1.8,-3.1,-0.7,-0.104,-0.142,-1.019,0.9,-1.0,0.0,-0.0016,0.0049,0.0010,389,364,310,323,0.00,0.00,-0.49,0.06,0.1000,2,1,0,0.01,0.00,0.02,-0.02,0.00,0.00,0.07,129,30
1040,-8.1,26.0,3.6,-0.129,-0.195,-0.970,1.1,-1.3,0.0,0.0094,-0.0276,-0.0036,264,326,412,385,0.00,0.00,-0.49,0.06,0.1000,2,1,0,0.01,0.00,0.03,-0.01,0.00,0.00,0.07,128,30
1050,10.1,-14.9,-2.5,0.273,0.369,-1.035,0.9,-1.3,0.0,-0.0081,0.0064,0.0022,367,333,334,353,0.00,0.00,-0.49,0.06,0.1000,2,1,0,0.01,0.00,0.02,-0.01,0.00,0.00,0.07,128,30
1060,-5.5,-6.6,1.3,-0.123,-0.312,-0.966,0.9,-1.0,0.0,0.0066,0.0054,-0.0013,365,367,328,327,0.00,0.00,-0.49,0.06,0.1000,2,1,0,0.01,0.00,0.02,-0.01,0.00,0.00,0.07,126,30
1070,-10.7,16.7,2.0,-0.094,-0.072,-1.023,1.0,-1.3,0.0,0.0140,-0.0183,-0.0026,280,346,402,359,0.00,0.00,-0.49,0.06,0.1000,2,1,0,0.01,0.00,0.02,0.00,0.00,0.00,0.07,127,30
1081,10.1,-11.0,-2.6,0.159,0.339,-0.986,1.0,-1.1,0.0,-0.0068,0.0099,0.0031,373,354,335,325,0.00,0.00,-0.49,0.06,0.1000,2,1,0,0.01,0.00,0.02,-0.01,0.00,0.00,0.07,125,30
1091,-0.4,5.0,2.9,-0.081,-0.218,-1.024,0.9,-1.1,0.0,0.0015,-0.0063,-0.0029,352,351,333,352,0.00,0.00,-0.49,0.06,0.1000,2,1,0,0.01,0.00,0.02,-0.01,0.00,0.00,0.07,127,30
1101,-7.0,14.4,-3.0,-0.127,-0.047,-0.993,1.1,-1.4,0.0,0.0091,-0.0216,0.0017,285,318,412,373,0.00,0.00,-0.49,0.06,0.1000,2,1,0,0.01,0.00,0.02,-0.01,0.00,0.00,0.07,128,30
1111,5.2,-19.7,-1.8,0.205,0.221,-1.000,1.1,-1.3,0.0,-0.0039,0.0183,0.0018,384,356,321,327,0.00,0.00,-0.49,0.06,0.1000,2,1,0,0.01,0.00,0.02,-0.01,0.00,0.00,0.07,129,30
1121,-6.3,2.0,2.4,-0.105,-0.194,-1.006,1.2,-1.2,0.0,0.0058,0.0038,-0.0022,351,374,336,327,0.00,0.00,-0.49,0.06,0.1000,2,1,0,0.01,0.00,0.02,-0.01,0.00,0.00,0.07,127,30
1131,-1.7,13.1,0.2,0.018,0.036,-1.072,1.2,-1.6,0.0,0.0032,-0.0149,-0.0002,292,326,393,375,0.00,0.00,-0.49,0.06,0.1000,2,1,0,0.01,0.00,0.02,0.00,0.00,0.00,0.07,128,30
1141,6.8,-10.7,-1.8,0.210,0.153,-0.979,1.3,-1.4,0.0,-0.0054,0.0091,0.0018,374,344,330,339,0.00,0.00,-0.49,0.06,0.1000,2,1,0,0.01,0.00,0.02,-0.02,0.00,0.00,0.07,127,30
1151,-3.3,1.8,2.2,-0.169,-0.281,-0.934,1.2,-1.3,0.0,0.0047,-0.0025,-0.0020,338,357,352,340,0.00,0.00,-0.49,0.06,0.1000,2,1,0,0.01,0.00,0.02,-0.01,0.00,0.00,0.07,126,30
1161,1.5,2.4,1.1,0.043,0.176,-1.050,1.2,-1.3,0.0,-0.0002,-0.0040,-0.0011,323,342,365,357,0.00,0.00,-0.49,0.06,0.1000,2,1,0,0.01,0.00,0.02,-0.01,0.00,0.00,0.07,125,30
1171,8.0,-14.0,-1.4,0.178,0.031,-1.020,1.0,-1.1,0.0,-0.0086,0.0118,0.0013,387,347,311,341,0.00,0.00,-0.49,0.06,0.1000,2,1,0,0.01,0.00,0.01,-0.02,0.00,0.00,0.07,127,30
1182,-6.0,6.2,0.4,-0.160,-0.240,-0.929,0.9,-1.1,0.0,0.0072,-0.0075,-0.0004,333,347,354,353,0.00,0.00,-0.49,0.06,0.1000,2,1,0,0.01,0.00,0.02,-0.01,0.00,0.00,0.07,126,30
1192,1.0,2.2,-1.8,-0.029,0.106,-0.886,0.9,-1.1,0.0,0.0000,-0.0035,0.0018,330,334,373,350,0.00,0.00,-0.49,0.06,0.1000,2,1,0,0.01,0.00,0.02,-0.02,0.00,0.00,0.07,125,30
1202,7.4,-13.7,3.0,0.112,0.208,-1.096,0.8,-0.8,0.0,-0.0054,0.0144,-0.0031,386,381,315,343,0.00,0.00,-0.49,0.06,0.1050,2,1,0,0.01,0.00,0.02,-0.02,0.00,0.00,0.07,127,30
1212,-3.1,8.4,-3.0,-0.172,-0.179,-1.049,0.7,-0.8,0.0,0.0041,-0.0095,0.0030,346,348,365,351,0.00,0.00,-0.49,0.06,0.1030,2,1,0,0.01,0.00,0.02,-0.01,0.00,0.00,0.07,128,30
1222,-0.7,0.1,0.6,0.069,0.024,-0.957,0.7,-1.0,0.0,0.0025,-0.0070,0.0003,408,416,460,445,0.00,0.00,-0.49,0.06,0.1451,2,1,0,0.01,0.00,0.02,-0.01,0.00,0.00,0.07,127,30
1232,3.1,-13.5,2.8,0.158,0.034,-0.996,0.7,-0.8,0.0,-0.0022,0.0125,-0.0028,455,451,395,418,0.00,0.00,-0.49,0.06,0.1439,2,1,0,0.01,0.00,0.02,-0.02,0.00,0.00,0.07,128,30
1242,-6.4,20.2,-1.6,-0.246,-0.153,-0.924,0.7,-0.9,0.0,0.0078,-0.0187,0.0008,386,415,476,445,0.00,0.00,-0.49,0.06,0.1442,2,1,0,0.01,0.00,0.02,-0.01,0.00,0.00,0.07,130,30
1252,6.0,-2.6,0.0,0.174,0.202,-1.064,0.7,-0.9,0.0,-0.0051,0.0015,0.0000,430,417,436,444,0.00,0.00,-0.49,0.06,0.1450,2,1,0,0.01,0.00,0.02,-0.01,0.00,0.00,0.07,129,30
1262,-6.2,2.0,0.0,-0.129,-0.157,-1.011,0.8,-0.8,0.0,0.0061,0.0031,0.0000,435,454,429,408,0.00,0.00,-0.49,0.06,0.1448,2,1,0,0.01,0.00,0.02,-0.01,0.00,0.00,0.07,130,30
1273,1.8,3.7,-0.6,0.042,0.133,-1.103,0.9,-1.0,0.0,-0.0008,-0.0050,0.0006,417,421,450,442,0.00,0.00,-0.49,0.06,0.1452,2,1,0,0.01,0.00,0.02,-0.01,0.00,0.00,0.07,131,30
1283,-4.2,-11.2,-0.1,0.004,-0.126,-1.001,0.9,-0.9,0.0,0.0053,0.0101,0.0001,454,469,412,398,0.00,0.00,-0.49,0.06,0.1458,2,1,0,0.01,0.00,0.02,-0.01,0.00,0.00,0.07,129,30
1293,4.1,-0.8,-0.9,0.012,0.184,-1.118,1.0,-1.3,0.0,-0.0019,-0.0038,0.0012,424,415,444,443,0.00,0.00,-0.49,0.06,0.1447,2,1,0,0.01,0.00,0.02,-0.01,0.00,0.00,0.07,128,30
1303,-4.5,-11.6,-0.1,0.025,-0.188,-0.984,1.0,-1.0,0.0,0.0057,0.0104,0.0001,633,646,593,578,0.00,0.00,-0.49,0.06,0.2405,2,1,0,0.01,0.00,0.02,-0.01,0.00,0.00,0.07,129,30
1313,3.2,-5.5,4.6,0.045,0.155,-1.147,1.1,-1.4,0.0,-0.0010,0.0008,-0.0048,596,613,602,623,0.00,0.00,-0.49,0.06,0.2385,2,1,0,0.01,0.00,0.02,-0.02,0.00,0.00,0.07,130,30
1323,-5.0,4.6,-0.7,-0.067,-0.083,-1.037,1.1,-1.2,0.0,0.0063,-0.0060,0.0007,716,734,739,711,0.00,0.00,-0.49,0.06,0.3001,2,1,0,0.01,0.00,0.02,-0.01,0.00,0.00,0.07,128,30
1333,-3.8,-8.6,-7.6,0.019,-0.015,-0.808,1.1,-1.2,0.0,0.0063,0.0097,0.0066,740,741,723,678,0.00,0.00,-0.49,0.06,0.2977,2,1,0,0.01,0.00,0.02,-0.02,0.00,0.00,0.07,127,30
1343,-9.0,-8.3,9.7,0.133,-0.114,-0.808,1.0,-1.4,0.0,0.0103,0.0066,-0.0097,751,787,777,810,0.00,0.00,-0.49,0.06,0.3299,2,1,0,0.01,0.00,0.02,-0.02,0.00,0.00,0.07,128,30
1353,-10.2,18.0,-10.6,0.069,-0.279,-0.818,0.9,-1.5,0.0,0.0077,-0.0249,0.0113,746,722,864,802,0.00,0.00,-0.49,0.06,0.3312,2,1,0,0.01,0.00,0.02,-0.01,0.00,0.00,0.07,127,30
1364,-4.3,16.9,1.8,0.055,-0.163,-0.807,0.9,-1.3,0.0,0.0055,-0.0185,-0.0018,791,792,811,836,0.00,0.00,-0.49,0.06,0.3438,2,1,0,0.01,0.00,0.02,-0.03,0.00,0.00,0.07,128,30
1374,-3.1,13.1,6.1,-0.033,0.095,-0.835,1.1,-1.3,0.0,0.0044,-0.0147,-0.0061,771,835,847,815,0.00,0.00,-0.49,0.06,0.3489,2,1,0,0.01,0.00,0.02,-0.02,0.00,0.00,0.07,129,30
1384,1.1,6.4,-4.0,-0.162,0.036,-1.077,0.7,-1.2,0.0,-0.0011,-0.0070,0.0038,819,794,822,824,0.00,0.00,-0.49,0.06,0.3477,2,1,0,0.01,0.00,0.02,-0.01,0.00,0.00,0.07,130,30
1394,0.8,-5.4,2.9,0.046,-0.065,-0.800,0.7,-1.1,0.0,0.0001,0.0040,-0.0029,813,807,823,843,0.00,0.00,-0.49,0.06,0.3511,2,1,0,0.01,0.00,0.02,-0.02,0.00,0.00,0.07,129,30
1404,7.1,-20.8,-2.9,0.096,0.150,-0.472,0.8,-1.3,0.0,-0.0033,0.0121,0.0047,849,822,818,801,0.00,0.00,-0.49,0.06,0.3517,2,1,0,0.01,0.00,0.02,-0.02,0.00,0.00,0.07,130,30
1414,-5.5,8.6,-1.6,0.107,-0.138,-1.110,0.8,-1.5,0.0,0.0066,-0.0103,0.0016,777,783,872,855,0.00,0.00,-0.49,0.06,0.3513,2,1,0,0.01,0.00,0.02,-0.01,0.00,0.00,0.07,129,30
1424,-6.1,21.9,0.0,0.074,-0.175,-1.195,1.0,-1.5,0.0,0.0096,-0.0319,-0.0012,738,792,910,872,0.00,0.00,-0.49,0.06,0.3546,2,1,0,0.01,0.00,0.02,-0.02,0.00,0.00,0.07,130,30
1434,-1.3,22.0,3.5,0.021,-0.105,-0.730,1.0,-1.5,0.0,0.0017,-0.0252,-0.0034,778,786,866,884,0.00,0.00,-0.49,0.06,0.3549,2,1,0,0.01,0.00,0.02,-0.02,0.00,0.00,0.07,128,30
1444,2.0,14.1,-0.1,-0.058,-0.032,-0.749,1.0,-1.4,0.0,-0.0007,-0.0158,0.0001,823,817,832,821,0.00,0.00,-0.49,0.06,0.3521,2,1,0,0.01,0.00,0.02,-0.02,0.00,0.00,0.07,129,30
1454,5.5,5.1,6.5,-0.136,0.097,-0.533,1.2,-1.3,0.0,0.0007,-0.0009,-0.0069,815,852,818,833,0.00,0.00,-0.49,0.06,0.3556,2,1,0,0.01,0.00,0.02,-0.02,0.00,0.00,0.07,128,30
1464,-2.3,4.0,4.8,-0.022,0.054,-0.992,1.2,-1.5,0.0,0.0038,-0.0057,-0.0048,777,803,846,841,0.00,0.00,-0.49,0.06,0.3488,2,1,0,0.01,0.00,0.02,-0.01,0.00,0.00,0.07,130,30
1475,-0.5,12.2,-3.7,0.024,0.133,-1.176,1.5,-1.5,0.0,0.0025,-0.0171,0.0047,801,788,872,845,0.00,0.00,-0.49,0.06,0.3538,2,1,0,0.01,0.00,0.01,-0.02,0.00,0.00,0.07,128,30
1485,-12.0,6.3,7.9,-0.027,-0.004,-1.321,1.7,-1.4,0.0,0.0144,-0.0073,-0.0075,784,867,854,814,0.00,0.00,-0.49,0.06,0.3556,2,1,0,0.01,0.00,0.01,-0.01,0.00,0.00,0.07,129,30
1495,-18.7,-11.0,-3.0,-0.006,-0.189,-1.245,1.7,-1.4,0.0,0.0207,0.0094,0.0030,847,899,837,741,0.00,0.00,-0.49,0.06,0.3562,2,1,0,0.01,0.00,0.02,-0.01,0.00,0.00,0.07,127,30
1505,-12.7,-13.8,5.4,0.021,-0.163,-1.184,1.7,-1.4,0.0,0.0139,0.0151,-0.0059,836,912,799,778,0.00,0.00,-0.49,0.06,0.3564,2,1,0,0.01,0.00,0.02,-0.02,0.00,0.00,0.07,129,30
1515,4.7,-33.2,-5.5,0.066,0.016,-1.085,1.7,-1.5,0.0,-0.0028,0.0315,0.0055,898,864,785,784,0.00,0.00,-0.49,0.06,0.3572,2,1,0,0.01,0.00,0.01,-0.02,0.00,0.00,0.07,127,30
1525,14.9,-31.7,-1.5,0.092,0.132,-0.937,1.8,-1.8,0.0,-0.0109,0.0234,0.0015,867,838,813,835,0.00,0.00,-0.49,0.06,0.3601,2,1,0,0.01,0.00,0.01,-0.02,0.00,0.00,0.07,128,30
1535,6.5,-24.4,6.5,0.005,0.204,-0.796,1.9,-1.8,0.0,-0.0044,0.0225,-0.0065,833,838,812,836,0.00,0.00,-0.49,0.06,0.3556,2,1,0,0.01,0.00,0.01,-0.02,0.00,0.00,0.07,126,30
1545,2.2,-12.9,-7.1,0.048,0.107,-0.998,2.0,-1.7,0.0,0.0000,0.0110,0.0071,818,815,870,816,0.00,0.00,-0.49,0.06,0.3555,2,1,0,0.01,0.00,0.01,-0.01,0.00,0.00,0.07,127,30
1555,-1.4,-9.3,5.3,0.128,0.026,-1.007,2.1,-1.7,0.0,0.0041,0.0035,-0.0050,789,827,851,845,0.00,0.00,-0.49,0.06,0.3546,2,1,0,0.01,0.00,0.01,-0.02,0.00,0.00,0.07,126,30
1565,-3.7,6.5,-9.3,0.130,0.035,-1.102,2.2,-1.9,0.0,0.0063,-0.0087,0.0093,781,769,910,848,0.00,0.00,-0.49,0.06,0.3541,2,1,0,0.01,0.00,0.02,-0.01,0.00,0.00,0.07,125,30
1576,-0.7,13.0,-1.6,0.036,0.000,-1.348,2.5,-1.9,0.0,0.0045,-0.0241,0.0007,767,793,899,878,0.00,0.00,-0.49,0.06,0.3579,2,1,0,0.01,0.00,0.02,-0.01,0.00,0.00,0.07,124,30
1586,0.9,9.3,-0.5,0.039,0.153,-1.195,2.8,-1.8,0.0,0.0021,-0.0115,0.0005,779,803,887,849,0.00,0.00,-0.49,0.06,0.3555,2,1,0,0.01,0.00,0.02,-0.01,0.00,0.00,0.07,126,30
1596,-1.6,1.7,-16.0,0.174,0.040,-1.123,3.0,-1.8,0.0,0.0063,-0.0114,0.0140,810,803,900,826,0.00,0.00,-0.49,0.06,0.3583,2,1,0,0.01,0.00,0.02,-0.01,0.00,0.00,0.06,124,30
1606,-2.6,15.1,8.9,0.114,-0.027,-1.181,3.4,-1.8,0.0,0.0072,-0.0212,-0.0091,743,821,901,899,0.00,0.00,-0.49,0.06,0.3615,2,1,0,0.01,0.00,0.02,-0.01,0.00,0.00,0.06,126,30
1616,-6.9,23.4,-15.2,0.002,-0.024,-1.033,3.7,-2.0,0.0,0.0109,-0.0257,0.0152,743,746,983,857,0.00,0.00,-0.49,0.06,0.3570,2,1,0,0.01,0.00,0.02,-0.01,0.00,0.00,0.06,127,30
1626,-1.5,14.4,1.8,-0.042,0.023,-0.828,3.9,-1.9,0.0,0.0088,-0.0253,-0.0056,743,812,890,881,0.00,0.00,-0.49,0.06,0.3566,2,1,0,0.01,0.00,0.02,-0.01,0.00,0.00,0.06,128,30
1636,-11.1,5.1,-3.1,-0.074,0.044,-0.869,4.1,-1.8,0.0,0.0156,-0.0071,0.0031,789,852,884,813,0.00,0.00,-0.49,0.06,0.3579,2,1,0,0.01,0.00,0.01,-0.01,0.00,0.00,0.06,127,30
1646,-5.2,-9.2,-9.4,-0.211,0.121,-0.727,4.3,-1.6,0.0,0.0117,0.0109,0.0050,839,879,841,787,0.00,0.00,-0.49,0.06,0.3592,2,1,0,0.01,0.00,0.01,-0.01,0.00,0.00,0.07,128,30
1656,-3.8,-29.2,13.5,-0.100,0.181,-0.685,4.6,-1.4,0.0,0.0123,0.0293,-0.0135,824,935,790,771,0.00,0.00,-0.49,0.06,0.3557,2,1,0,0.01,0.00,0.01,-0.01,0.00,0.00,0.07,127,30
1666,-2.4,-33.1,-16.2,0.122,0.093,-0.615,4.7,-1.4,0.0,0.0074,0.0314,0.0162,855,870,853,735,0.00,0.00,-0.49,0.06,0.3548,2,1,0,0.01,0.00,0.00,-0.01,0.00,0.00,0.07,126,30
1677,-10.8,-18.5,16.2,0.143,0.022,-0.780,4.8,-1.5,0.0,0.0217,-0.0001,-0.0160,732,888,869,834,0.00,0.00,-0.49,0.06,0.3561,2,1,0,0.01,0.00,0.00,-0.01,0.00,0.00,0.07,127,30
1687,-6.1,-0.7,-11.7,0.122,0.113,-1.039,4.8,-1.3,0.0,0.0113,-0.0008,0.0117,759,797,962,810,0.00,0.00,-0.49,0.06,0.3567,2,1,0,0.01,0.00,0.00,-0.01,0.00,0.00,0.07,126,30
1697,-13.9,6.3,0.8,0.152,0.039,-1.157,4.9,-1.2,0.0,0.0255,-0.0248,-0.0032,707,834,937,849,0.00,0.00,-0.49,0.06,0.3566,2,1,0,0.01,0.00,0.00,-0.01,0.00,0.00,0.07,125,30
1707,-21.6,10.0,4.4,0.230,-0.069,-1.016,5.0,-1.2,0.0,0.0269,-0.0114,-0.0045,692,814,962,835,0.00,0.00,-0.49,0.06,0.3534,2,1,0,0.01,0.00,0.01,-0.01,0.00,0.00,0.07,127,30
1717,-24.9,15.3,-13.2,0.153,-0.191,-1.019,5.1,-1.1,0.0,0.0323,-0.0361,0.0126,710,788,1002,835,0.00,0.00,-0.49,0.06,0.3576,2,1,0,0.01,0.00,0.01,-0.01,0.00,0.00,0.07,128,30
1727,-15.9,5.5,19.6,0.063,-0.032,-1.097,5.3,-0.9,0.0,0.0217,-0.0067,-0.0196,698,852,907,889,0.00,0.00,-0.48,0.06,0.3592,2,1,0,0.01,0.00,0.00,-0.01,0.00,0.00,0.07,127,30
1737,-19.2,3.9,-23.1,0.166,-0.008,-1.150,5.6,-0.7,0.0,0.0261,-0.0085,0.0230,789,817,972,795,0.00,0.00,-0.48,0.06,0.3627,2,1,0,0.01,0.00,0.00,0.00,0.00,0.00,0.06,128,30
1747,-17.5,19.6,18.0,-0.094,0.101,-1.319,6.0,-0.4,0.0,0.0259,-0.0190,-0.0211,716,903,877,866,-0.01,0.00,-0.48,0.06,0.3614,2,1,0,0.01,0.00,0.00,0.00,0.00,0.00,0.06,129,30
1757,-12.4,3.8,-4.4,-0.184,0.201,-1.328,6.2,0.0,0.0,0.0191,-0.0042,0.0044,822,901,865,753,-0.01,0.00,-0.48,0.06,0.3585,2,1,0,0.01,0.00,0.01,0.00,0.00,0.00,0.06,127,30
1768,-15.0,-18.0,-0.9,-0.035,0.064,-1.075,6.2,0.0,0.0,0.0247,0.0302,-0.0029,843,961,803,730,-0.01,0.00,-0.48,0.06,0.3579,2,1,0,0.01,0.00,0.01,-0.01,0.00,0.00,0.06,128,30
1778,-1.3,-35.4,18.5,0.011,0.131,-0.824,6.0,-0.2,0.0,0.0078,0.0351,-0.0185,861,953,765,764,-0.01,0.00,-0.48,0.06,0.3589,2,1,0,0.01,0.00,0.01,-0.01,0.00,0.00,0.06,129,30
1788,10.7,-45.4,-9.3,0.062,0.194,-0.701,5.9,-0.2,0.0,-0.0027,0.0449,0.0088,895,887,821,769,0.00,0.00,-0.48,0.06,0.3625,2,1,0,0.01,0.00,0.00,-0.01,0.00,0.00,0.06,127,30
1798,3.4,-44.5,32.0,0.174,0.183,-0.835,5.8,-0.3,0.0,0.0042,0.0395,-0.0315,801,940,775,853,0.00,0.00,-0.48,0.06,0.3621,2,1,0,0.01,0.00,0.00,0.00,0.00,0.00,0.07,126,30
1808,5.0,-23.7,-17.2,0.153,0.080,-0.957,5.6,-0.2,0.0,0.0009,0.0233,0.0171,857,802,921,812,0.00,0.00,-0.48,0.06,0.3653,2,1,0,0.01,0.00,0.00,0.00,0.00,0.00,0.07,127,30
1818,5.9,5.5,27.0,-0.044,0.071,-1.196,5.4,0.0,0.0,0.0040,-0.0124,-0.0269,754,876,834,915,0.00,0.00,-0.47,0.06,0.3636,2,1,0,0.01,0.00,0.00,-0.01,0.00,0.00,0.07,125,30
1828,9.2,22.8,6.1,-0.099,0.247,-1.259,5.1,0.2,0.0,-0.0037,-0.0229,-0.0062,824,801,868,867,0.00,0.00,-0.48,0.06,0.3611,2,1,0,0.01,0.00,0.01,-0.01,0.00,0.00,0.07,124,30
1838,11.4,16.2,-1.1,-0.163,0.168,-1.160,5.1,0.4,0.0,-0.0013,-0.0121,0.0002,810,814,842,841,0.00,0.00,-0.47,0.06,0.3540,2,1,0,0.01,0.00,0.01,-0.02,0.00,0.00,0.07,123,30
1848,10.2,8.6,27.1,0.032,0.142,-0.998,5.0,0.3,0.0,-0.0048,-0.0084,-0.0272,770,860,799,873,0.00,0.00,-0.47,0.06,0.3534,2,1,0,0.01,0.00,0.02,-0.02,0.00,0.00,0.07,125,30
1858,1.7,27.5,-9.3,0.020,0.074,-1.043,5.0,0.3,0.0,0.0108,-0.0283,0.0114,787,801,927,811,0.00,0.00,-0.47,0.06,0.3563,2,1,0,0.01,0.00,0.02,-0.02,0.00,0.00,0.07,124,30
1869,-0.9,22.2,31.9,-0.005,0.004,-1.193,5.0,0.3,0.0,0.0064,-0.0221,-0.0321,715,867,841,922,0.00,0.00,-0.47,0.06,0.3591,2,1,0,0.01,0.00,0.01,-0.02,0.00,0.00,0.07,126,30
1879,5.0,18.1,-2.1,-0.029,0.029,-1.105,5.4,0.3,0.0,0.0045,-0.0228,0.0053,799,801,920,845,0.00,0.00,-0.47,0.06,0.3616,2,1,0,0.01,0.00,0.01,-0.01,0.00,0.00,0.07,127,30
1889,4.9,31.1,13.5,-0.146,0.074,-1.231,5.8,0.3,0.0,0.0003,-0.0312,-0.0147,755,825,855,930,0.00,0.00,-0.46,0.06,0.3617,2,1,0,0.01,0.00,0.02,-0.01,0.00,0.00,0.07,128,30
1899,1.4,52.2,19.7,-0.153,0.034,-1.323,6.2,0.0,0.0,0.0052,-0.0525,-0.0199,743,794,863,918,-0.01,0.00,-0.47,0.06,0.3555,2,1,0,0.01,0.00,0.02,-0.01,0.00,0.00,0.07,126,30
1909,6.2,50.3,-6.0,-0.238,0.097,-0.924,6.8,-0.1,0.0,-0.0003,-0.0356,0.0033,807,806,842,852,-0.01,0.00,-0.46,0.06,0.3540,2,1,0,0.01,0.00,0.02,-0.01,0.00,0.00,0.07,127,30
1919,-9.9,29.7,39.9,-0.095,0.024,-0.662,7.5,-0.7,0.0,0.0179,-0.0308,-0.0401,718,923,798,867,-0.01,0.00,-0.46,0.06,0.3540,2,1,0,0.01,0.00,0.02,0.00,0.00,0.00,0.07,126,30
1929,-8.2,32.2,-10.7,0.005,-0.007,-0.389,7.9,-1.5,0.0,0.0166,-0.0341,0.0106,780,826,921,794,-0.01,0.00,-0.46,0.06,0.3557,2,1,0,0.01,0.00,0.02,0.00,0.00,0.00,0.07,127,30
1939,-2.7,25.2,40.9,-0.149,0.148,-0.513,8.2,-1.9,0.0,0.0122,-0.0248,-0.0422,694,925,803,916,-0.01,0.00,-0.46,0.06,0.3581,2,1,0,0.01,0.00,0.02,0.00,0.00,0.00,0.07,126,30
1949,16.0,9.3,-8.0,-0.026,0.292,-0.810,8.5,-2.0,0.0,-0.0070,-0.0118,0.0078,847,815,857,790,-0.01,0.00,-0.46,0.06,0.3543,2,1,0,0.01,0.00,0.01,0.00,0.00,0.00,0.07,127,30
1959,4.8,1.7,4.9,-0.051,0.301,-0.762,8.9,-2.1,0.0,0.0078,-0.0038,-0.0070,745,877,827,812,-0.02,0.00,-0.45,0.06,0.3479,2,1,0,0.01,0.00,0.00,-0.01,0.00,0.00,0.07,126,30
1970,-15.1,4.5,15.4,-0.126,0.084,-0.746,9.0,-1.6,0.0,0.0247,-0.0064,-0.0157,722,905,862,775,-0.02,0.00,-0.45,0.06,0.3482,2,1,0,0.01,0.00,0.00,-0.01,0.00,0.00,0.08,127,30
1980,-20.7,-12.0,-13.0,-0.084,-0.164,-0.704,8.7,-0.8,0.0,0.0314,0.0163,0.0091,812,902,856,714,-0.02,0.00,-0.45,0.06,0.3510,2,1,0,0.01,0.00,0.00,-0.01,0.00,0.00,0.08,126,30
1990,-8.7,-36.7,41.4,0.116,-0.129,-0.841,8.6,-0.3,0.0,0.0180,0.0362,-0.0416,776,986,722,827,-0.01,0.00,-0.45,0.06,0.3546,2,1,0,0.01,0.00,0.00,-0.01,0.00,0.00,0.08,127,30
2000,-3.8,-38.3,-22.8,0.036,-0.082,-0.744,8.6,0.3,0.0,0.0126,0.0336,0.0228,858,819,886,749,-0.01,0.00,-0.45,0.06,0.3566,2,1,0,0.01,0.00,0.00,-0.01,0.00,0.00,0.08,125,30
2010,-14.4,-30.0,38.2,0.052,-0.104,-0.848,8.6,0.1,0.0,0.0237,0.0301,-0.0385,710,950,792,869,-0.01,0.00,-0.44,0.06,0.3558,2,1,0,0.01,0.00,0.00,0.00,0.00,0.00,0.08,126,30
2020,-10.4,-34.9,-7.6,0.204,-0.153,-0.903,8.4,0.4,0.0,0.0188,0.0322,0.0091,855,838,892,759,-0.01,0.00,-0.45,0.06,0.3589,2,1,0,0.01,0.00,0.00,0.00,0.00,0.00,0.08,124,30
2030,-3.6,-7.2,6.2,0.089,-0.070,-1.054,8.5,0.6,0.0,0.0127,0.0076,-0.0064,774,877,837,865,-0.01,0.00,-0.44,0.06,0.3600,2,1,0,0.01,0.00,0.00,0.00,0.00,0.00,0.07,125,30
2040,-6.5,2.9,22.1,0.060,0.028,-1.147,8.5,0.7,0.0,0.0157,-0.0024,-0.0223,783,876,831,826,-0.01,0.00,-0.44,0.06,0.3552,2,1,0,0.01,0.00,0.00,0.00,0.00,0.00,0.07,124,30
2050,-16.2,11.2,-20.9,0.010,-0.117,-1.363,8.4,0.4,0.0,0.0225,-0.0105,0.0159,790,818,901,781,-0.01,0.00,-0.44,0.06,0.3518,2,1,0,0.01,0.00,0.01,0.00,0.00,0.00,0.07,125,30
2061,-8.3,20.4,37.1,0.013,-0.127,-1.218,8.2,0.0,0.0,0.0174,-0.0207,-0.0374,737,896,779,906,-0.01,0.00,-0.44,0.06,0.3555,2,1,0,0.01,0.00,0.02,-0.01,0.00,0.00,0.08,124,30
2071,-3.6,25.4,-34.3,-0.010,-0.082,-1.107,8.3,-0.4,0.0,0.0045,-0.0120,0.0327,912,771,858,784,-0.01,0.00,-0.44,0.06,0.3563,2,1,0,0.01,0.00,0.02,0.00,0.00,0.00,0.08,126,30
2081,-7.9,15.1,41.4,-0.032,-0.078,-0.952,8.6,-0.8,0.0,0.0159,-0.0111,-0.0432,748,963,746,898,-0.02,0.00,-0.43,0.06,0.3604,2,1,0,0.01,0.00,0.01,0.00,0.00,0.00,0.08,125,30
2091,-15.0,-18.0,-12.2,0.065,-0.066,-0.890,8.7,-1.7,0.0,0.0246,0.0177,0.0134,868,869,881,735,-0.02,0.00,-0.44,0.07,0.3601,2,1,0,0.01,0.00,0.01,0.00,0.00,0.00,0.08,127,30
2101,0.3,-37.2,1.7,0.167,0.151,-1.110,8.6,-2.1,0.0,0.0072,0.0361,-0.0048,862,924,743,804,-0.02,0.00,-0.43,0.07,0.3574,2,1,0,0.01,0.00,0.01,0.00,0.00,0.00,0.08,126,30
2111,10.1,-19.0,42.4,0.117,0.333,-0.972,8.8,-2.4,0.0,-0.0006,0.0163,-0.0428,771,884,736,840,-0.02,0.00,-0.43,0.07,0.3441,2,1,0,0.01,0.00,0.00,-0.01,0.00,0.00,0.08,128,30
2121,3.0,-11.2,-45.8,0.148,0.077,-1.008,8.6,-2.5,0.0,0.0065,0.0051,0.0409,864,760,887,743,-0.01,0.00,-0.43,0.07,0.3470,2,1,0,0.01,0.00,0.00,-0.01,0.00,0.00,0.08,129,30
2131,-1.4,-1.9,64.5,0.081,0.187,-0.945,8.5,-2.5,0.0,0.0107,-0.0009,-0.0648,664,961,731,896,-0.01,0.00,-0.43,0.07,0.3468,2,1,0,0.01,0.00,0.00,-0.01,0.00,0.00,0.08,130,30
2141,-5.9,1.3,-52.0,0.056,0.068,-1.133,8.1,-2.4,0.0,0.0152,0.0014,0.0555,926,755,945,681,-0.01,0.00,-0.43,0.07,0.3540,2,1,0,0.01,0.00,0.00,0.00,0.00,0.00,0.08,128,30
2151,0.9,-13.9,51.5,-0.030,0.065,-1.218,7.9,-2.2,0.0,0.0076,0.0114,-0.0519,733,992,695,907,-0.01,0.00,-0.42,0.07,0.3566,2,1,0,0.01,0.00,0.00,-0.01,0.00,0.00,0.07,129,30
2162,-5.3,-75.2,-3.8,0.061,-0.055,-0.894,7.5,-2.1,0.0,0.0111,0.0665,0.0145,964,874,827,704,-0.01,0.00,-0.43,0.07,0.3623,2,1,0,0.01,0.00,-0.01,0.00,0.00,0.00,0.07,128,30
2172,-4.9,-89.4,-3.2,0.306,-0.084,-0.859,7.4,-2.3,0.0,0.0126,0.0797,-0.0004,809,902,803,851,-0.01,0.00,-0.42,0.07,0.3617,2,1,0,0.01,0.00,0.00,0.00,0.00,0.00,0.07,126,30
2182,-11.3,-53.4,62.4,0.133,-0.096,-0.659,7.1,-2.2,0.0,0.0193,0.0511,-0.0628,754,916,794,911,-0.01,0.00,-0.42,0.07,0.3631,2,1,0,0.01,0.00,-0.01,0.00,0.00,0.00,0.07,127,30
2192,-1.0,-39.9,-71.4,0.240,-0.090,-0.801,7.1,-2.2,0.0,0.0110,0.0139,0.0661,899,716,1008,754,-0.01,0.00,-0.42,0.07,0.3634,2,1,0,0.01,0.00,-0.01,0.00,0.00,0.00,0.07,129,30
2202,-12.7,-26.9,108.2,0.029,0.004,-0.753,7.0,-1.9,0.0,0.0206,0.0248,-0.1086,595,1030,716,1027,-0.01,0.00,-0.42,0.07,0.3622,2,1,0,0.01,0.00,-0.01,0.00,0.00,0.00,0.07,127,30
2212,-6.5,-39.2,-80.1,0.007,-0.059,-1.148,6.6,-1.4,0.0,0.0151,0.0354,0.0823,981,715,1021,597,-0.01,0.00,-0.42,0.07,0.3550,2,1,0,0.01,0.00,0.00,0.00,0.00,0.00,0.07,128,30
2222,2.7,-16.1,59.4,-0.002,-0.070,-1.167,6.2,-1.7,0.0,0.0050,0.0111,-0.0624,636,956,699,961,-0.01,0.00,-0.41,0.07,0.3467,2,1,0,0.01,0.00,0.00,-0.02,0.00,0.00,0.08,130,30
2232,14.8,-24.5,11.4,0.089,0.112,-1.206,5.7,-2.2,0.0,-0.0104,0.0152,0.0032,876,752,846,801,0.00,0.00,-0.42,0.07,0.3497,2,1,0,0.01,0.00,0.01,-0.01,0.00,0.00,0.07,130,30
2242,18.5,-20.5,-15.9,-0.032,0.194,-1.117,5.8,-2.5,0.0,-0.0109,0.0167,0.0110,789,845,809,854,0.00,0.00,-0.41,0.07,0.3527,2,1,0,0.01,0.00,0.00,-0.01,0.00,0.00,0.07,128,30
2252,-2.4,-7.8,88.9,0.160,0.088,-1.525,5.8,-2.8,0.0,0.0090,0.0046,-0.0893,696,1012,708,925,0.00,0.01,-0.41,0.07,0.3585,2,1,0,0.01,0.00,0.00,-0.01,0.00,0.00,0.08,129,30
2263,18.6,15.1,-82.6,0.152,0.029,-1.099,5.9,-3.5,0.0,-0.0084,-0.0160,0.0777,943,680,990,714,0.00,0.01,-0.41,0.07,0.3566,2,1,0,0.01,0.00,0.00,-0.01,0.00,0.00,0.10,130,30
2273,10.5,8.3,110.6,-0.202,0.306,-1.432,6.0,-3.4,0.0,-0.0007,-0.0070,-0.1113,634,1098,605,975,0.00,0.01,-0.40,0.07,0.3546,2,1,0,0.01,0.00,0.00,-0.01,0.00,0.00,0.09,128,30
2283,17.4,-5.4,-62.5,-0.054,-0.018,-0.901,5.8,-3.6,0.0,-0.0109,0.0015,0.0620,1011,715,920,654,0.00,0.01,-0.41,0.07,0.3531,2,1,0,0.01,0.00,0.00,-0.01,0.00,0.00,0.08,130,30
2293,5.3,-19.8,80.8,-0.017,0.192,-0.692,6.0,-3.5,0.0,0.0081,0.0196,-0.0917,634,1072,626,950,-0.01,0.01,-0.40,0.07,0.3507,2,1,0,0.01,0.00,0.00,-0.01,0.00,0.00,0.07,131,30
2303,5.8,-11.8,7.8,0.112,0.010,-0.821,5.7,-3.5,0.0,0.0007,0.0079,-0.0083,870,769,885,811,0.00,0.01,-0.41,0.07,0.3578,2,1,0,0.01,0.00,0.00,0.00,0.00,0.00,0.07,129,30
2313,7.0,10.3,-15.4,0.078,0.004,-0.985,6.0,-3.4,0.0,0.0033,-0.0227,0.0052,745,814,892,889,-0.01,0.01,-0.39,0.07,0.3584,2,1,0,0.01,0.00,0.00,0.00,0.00,0.00,0.07,127,30
2323,5.5,13.8,98.4,0.183,0.221,-1.335,6.0,-3.1,0.0,0.0012,-0.0173,-0.0989,622,932,772,1021,-0.01,0.01,-0.40,0.07,0.3591,2,1,0,0.01,0.00,-0.01,0.00,0.00,0.00,0.07,128,30
2333,7.3,42.8,-79.9,-0.107,-0.073,-1.025,5.9,-2.8,0.0,-0.0006,-0.0461,0.0793,901,650,1010,763,-0.01,0.01,-0.40,0.07,0.3563,2,1,0,0.01,0.00,0.00,-0.01,0.00,0.00,0.07,127,30
2343,1.6,21.8,124.6,-0.302,0.141,-1.498,5.6,-2.0,0.0,0.0042,-0.0190,-0.1264,592,1090,585,1058,0.00,0.00,-0.39,0.07,0.3562,2,1,0,0.01,0.00,-0.01,-0.01,0.00,0.00,0.07,125,30
2353,1.4,-4.4,-81.5,-0.009,-0.184,-0.986,5.4,-1.6,0.0,0.0048,0.0023,0.0809,1075,737,926,608,0.00,0.00,-0.40,0.07,0.3591,2,1,0,0.01,0.00,-0.01,0.00,0.00,0.00,0.08,127,30
2363,-6.7,-16.7,82.4,0.005,-0.195,-0.912,5.1,-1.6,0.0,0.0085,0.0238,-0.0936,666,1068,571,954,0.00,0.00,-0.38,0.07,0.3476,2,1,0,0.01,0.00,0.00,-0.01,0.00,0.00,0.08,126,30
2374,19.7,-19.0,-3.4,-0.048,-0.032,-0.510,4.8,-1.8,0.0,-0.0140,0.0170,0.0028,932,743,818,758,0.00,0.00,-0.39,0.07,0.3466,2,1,0,0.01,0.00,0.00,-0.01,0.00,0.00,0.08,128,30
2384,8.9,-12.1,-13.8,-0.042,0.097,-0.874,5.1,-1.9,0.0,-0.0029,0.0100,0.0132,783,835,778,857,0.00,0.00,-0.38,0.07,0.3467,2,1,0,0.01,0.00,0.00,-0.01,0.00,0.00,0.08,129,30
2394,2.3,-10.4,82.6,0.071,0.011,-0.709,5.0,-2.1,0.0,0.0032,0.0048,-0.0789,692,894,762,940,0.00,0.00,-0.39,0.07,0.3515,2,1,0,0.01,0.00,0.00,0.00,0.00,0.00,0.08,130,30
2404,9.3,1.0,-92.0,0.073,-0.150,-0.898,5.0,-2.4,0.0,-0.0034,-0.0037,0.0913,929,618,1011,735,0.00,0.00,-0.38,0.07,0.3521,2,1,0,0.01,0.00,0.00,-0.01,0.00,0.00,0.08,128,30
2414,9.1,30.4,119.5,-0.115,0.098,-0.894,5.0,-2.5,0.0,-0.0056,-0.0382,-0.1180,559,952,664,1134,0.00,0.00,-0.38,0.07,0.3544,2,1,0,0.01,0.00,0.00,-0.01,0.00,0.00,0.08,129,30
2424,20.1,9.7,-94.9,-0.037,0.139,-1.084,5.1,-2.4,0.0,-0.0142,-0.0125,0.0942,1048,623,996,678,0.00,0.00,-0.39,0.07,0.3591,2,1,0,0.01,0.00,0.00,-0.01,0.00,0.00,0.07,127,30
2434,9.8,8.7,70.4,-0.235,0.200,-1.038,5.1,-2.2,0.0,-0.0039,-0.0088,-0.0750,673,1023,617,1000,0.00,0.00,-0.37,0.07,0.3547,2,1,0,0.01,0.00,0.00,-0.02,0.00,0.00,0.07,128,30
2444,6.3,-18.1,-9.8,-0.087,0.079,-1.015,5.0,-1.6,0.0,-0.0036,0.0300,0.0212,957,823,798,713,0.00,0.00,-0.38,0.07,0.3519,2,1,0,0.01,0.00,0.00,-0.02,0.00,0.00,0.06,126,30
2454,29.8,-42.9,-29.3,-0.067,-0.203,-1.357,4.3,-1.0,0.0,-0.0246,0.0416,0.0286,960,825,678,803,0.00,0.00,-0.37,0.07,0.3484,2,1,0,0.01,0.00,0.00,-0.03,0.00,0.00,0.06,127,30
2464,43.1,-56.6,73.5,-0.105,0.331,-0.906,3.8,-0.7,0.0,-0.0412,0.0497,-0.0666,844,890,588,959,0.00,0.00,-0.37,0.07,0.3505,2,1,0,0.01,0.00,0.00,-0.03,0.00,0.00,0.06,125,30
2475,43.3,-51.3,-86.4,0.118,0.370,-1.013,3.5,-0.5,0.0,-0.0390,0.0507,0.0857,1020,639,913,734,0.00,0.00,-0.37,0.07,0.3539,2,1,0,0.01,0.00,0.00,-0.02,0.00,0.00,0.07,126,30
2485,-0.7,-21.0,102.4,0.115,-0.040,-0.998,3.1,-0.1,0.0,0.0032,0.0162,-0.1037,620,1003,654,1067,0.00,0.00,-0.37,0.07,0.3589,2,1,0,0.01,0.00,0.00,-0.02,0.00,0.00,0.07,124,30
2495,8.6,26.9,-82.1,0.057,-0.324,-1.089,2.8,-0.2,0.0,-0.0080,-0.0332,0.0836,955,550,1081,795,0.00,0.00,-0.38,0.07,0.3637,2,1,0,0.01,0.00,0.00,-0.02,0.00,0.00,0.07,125,30
2505,4.8,46.8,53.6,-0.137,-0.151,-1.145,2.8,0.0,0.0,-0.0011,-0.0472,-0.0543,628,868,767,1082,0.00,0.00,-0.36,0.07,0.3591,2,1,0,0.01,0.00,0.00,-0.02,0.00,0.00,0.07,123,30
2515,13.9,44.2,-2.3,-0.041,0.268,-0.973,2.9,-0.4,0.0,-0.0118,-0.0474,0.0042,776,662,904,911,0.00,0.00,-0.37,0.07,0.3468,2,1,0,0.01,0.00,0.01,-0.02,0.00,0.00,0.07,125,30
2525,0.3,82.2,-24.3,-0.215,0.045,-1.012,3.3,-0.8,0.0,0.0039,-0.0837,0.0235,712,724,921,902,0.00,0.00,-0.36,0.07,0.3476,2,1,0,0.01,0.00,0.01,-0.03,0.00,0.00,0.06,123,30
2535,12.4,45.3,72.5,-0.097,0.228,-0.628,3.3,-1.7,0.0,-0.0099,-0.0364,-0.0671,696,893,733,962,0.00,0.00,-0.37,0.07,0.3508,2,1,0,0.01,0.00,0.00,-0.03,0.00,0.00,0.07,124,30
2545,-6.5,58.9,-87.1,0.309,-0.106,-0.888,3.6,-3.0,0.0,0.0110,-0.0625,0.0864,851,618,1097,749,0.00,0.01,-0.37,0.07,0.3551,2,1,0,0.01,0.00,0.01,-0.03,0.00,0.00,0.07,123,30
2555,-4.2,59.4,103.8,-0.081,0.211,-0.884,3.9,-3.7,0.0,0.0089,-0.0638,-0.1045,509,962,769,1087,0.00,0.01,-0.36,0.07,0.3566,2,1,0,0.01,0.00,0.00,-0.03,0.00,0.00,0.07,124,30
2565,-7.8,52.3,-86.0,0.090,-0.017,-1.003,4.4,-4.2,0.0,0.0182,-0.0451,0.0929,921,631,1121,681,0.00,0.01,-0.37,0.07,0.3603,2,1,0,0.01,0.00,0.00,-0.02,0.00,0.00,0.07,122,30
2576,-11.8,31.9,44.1,-0.142,-0.012,-1.209,4.7,-3.8,0.0,0.0175,-0.0364,-0.0449,673,996,713,920,0.00,0.01,-0.35,0.07,0.3532,2,1,0,0.01,0.00,0.00,-0.02,0.00,0.00,0.08,124,30
2586,-15.6,4.7,0.2,-0.036,-0.100,-0.964,5.0,-3.2,0.0,0.0167,0.0068,0.0108,943,872,864,734,0.00,0.01,-0.36,0.07,0.3679,2,1,0,0.01,0.00,0.00,-0.02,0.00,0.00,0.08,124,30
2596,-3.1,-14.9,-44.3,-0.031,-0.124,-0.896,5.2,-2.4,0.0,0.0093,0.0121,0.0435,924,895,822,750,0.00,0.00,-0.35,0.07,0.3651,2,1,0,0.01,0.00,-0.01,-0.03,0.00,0.00,0.08,125,30
2606,6.7,-51.0,92.3,0.040,0.104,-0.556,5.2,-1.8,0.0,-0.0038,0.0451,-0.0838,893,1136,754,1023,0.00,0.00,-0.35,0.07,0.4200,2,1,0,0.01,0.00,-0.01,-0.03,0.00,0.00,0.08,123,30
2616,-2.2,-4.2,-101.6,0.170,-0.165,-0.366,5.6,-1.3,0.0,0.0094,0.0000,0.0999,1110,786,1152,749,0.00,0.00,-0.36,0.07,0.4188,2,1,0,0.01,0.00,-0.01,-0.02,0.00,0.00,0.08,125,30
2626,-5.4,2.9,117.0,-0.211,0.104,-0.895,5.8,-0.5,0.0,0.0121,-0.0038,-0.1178,739,1232,773,1191,-0.01,0.00,-0.35,0.07,0.4371,2,1,0,0.01,0.00,-0.01,-0.02,0.00,0.00,0.08,126,30
2636,-5.9,-6.3,-96.0,0.061,-0.107,-0.765,6.0,0.0,0.0,0.0092,0.0086,0.1015,1190,826,1174,746,-0.01,0.00,-0.36,0.07,0.4373,2,1,0,0.01,0.00,-0.01,-0.01,0.00,0.00,0.08,127,30
2646,3.3,-1.9,54.5,-0.039,0.178,-0.939,6.7,0.3,0.0,0.0042,0.0019,-0.0553,799,1150,841,1074,-0.01,0.00,-0.34,0.07,0.4278,2,1,0,0.01,0.00,-0.01,-0.02,0.00,0.00,0.08,126,30
2656,-0.6,4.0,10.4,-0.172,-0.110,-1.223,6.8,0.6,0.0,0.0004,-0.0019,0.0047,1024,896,990,925,-0.01,0.00,-0.35,0.07,0.4238,2,1,0,0.01,0.00,-0.01,-0.01,0.00,0.00,0.08,127,30
2666,5.1,31.4,-36.0,0.099,-0.057,-1.159,7.1,0.6,0.0,0.0019,-0.0302,0.0303,925,887,998,962,-0.01,0.00,-0.34,0.07,0.4156,2,1,0,0.01,0.00,-0.01,-0.01,0.00,0.00,0.08,125,30
2677,-2.9,41.1,90.9,-0.110,0.100,-1.097,7.3,0.4,0.0,0.0112,-0.0411,-0.0917,725,1048,873,1080,-0.01,0.00,-0.34,0.07,0.4094,2,1,0,0.01,0.00,-0.01,-0.01,0.00,0.00,0.09,124,30
2687,2.9,38.5,-85.7,0.011,0.012,-1.323,7.4,0.0,0.0,0.0058,-0.0386,0.0843,1001,718,1153,819,-0.01,0.00,-0.34,0.07,0.4048,2,1,0,0.01,0.00,-0.01,-0.01,0.00,0.00,0.10,125,30
2697,-0.7,16.1,109.5,0.055,0.254,-1.173,7.4,-0.4,0.0,0.0092,-0.0170,-0.1104,634,1092,762,1142,-0.01,0.00,-0.34,0.07,0.3967,2,1,0,0.01,0.00,-0.01,-0.01,0.00,0.00,0.09,126,30
2707,12.3,-8.4,-79.2,0.182,0.235,-1.392,7.3,-1.2,0.0,0.0001,-0.0033,0.0848,1097,784,1199,829,-0.01,0.00,-0.34,0.08,0.4335,2,1,0,0.01,0.00,-0.01,-0.01,0.00,0.00,0.09,125,30
2717,2.6,5.4,69.2,-0.027,0.147,-1.071,7.2,-1.7,0.0,0.0056,-0.0074,-0.0702,764,1123,844,1127,-0.01,0.00,-0.33,0.08,0.4270,2,1,0,0.01,0.00,-0.01,-0.01,0.00,0.00,0.08,126,30
2727,2.5,18.5,11.5,0.121,0.124,-1.104,6.8,-2.3,0.0,0.0053,-0.0213,-0.0123,1039,971,1092,985,-0.01,0.00,-0.34,0.08,0.4571,2,1,0,0.01,0.00,-0.02,-0.01,0.00,0.00,0.07,127,30
2737,-6.4,19.3,-9.4,0.186,-0.045,-1.330,6.7,-3.0,0.0,0.0116,-0.0245,-0.0065,916,1012,1039,1068,-0.01,0.01,-0.33,0.08,0.4504,2,1,0,0.01,0.00,-0.02,-0.01,0.00,0.00,0.08,126,30
2747,0.5,-2.0,95.9,-0.091,-0.024,-1.347,6.7,-3.4,0.0,0.0072,-0.0017,-0.0968,799,1128,907,1153,-0.01,0.01,-0.33,0.08,0.4439,2,1,0,0.01,0.00,-0.02,0.00,0.00,0.00,0.08,125,30
2757,8.8,-5.8,-97.0,-0.197,-0.018,-1.035,7.0,-3.7,0.0,-0.0006,-0.0026,0.0847,1108,830,1146,846,-0.01,0.01,-0.33,0.08,0.4364,2,1,0,0.01,0.00,-0.02,0.00,0.00,0.00,0.08,126,30
2767,-6.9,15.0,104.6,-0.074,-0.065,-1.039,7.8,-3.5,0.0,0.0158,-0.0190,-0.1056,717,1187,816,1139,-0.01,0.01,-0.32,0.09,0.4269,2,1,0,0.01,0.00,-0.03,0.01,0.00,0.00,0.08,127,30
2778,-24.4,15.8,-98.8,0.210,-0.193,-1.415,8.8,-3.4,0.0,0.0349,-0.0204,0.1003,1082,797,1252,714,-0.02,0.01,-0.33,0.09,0.4252,2,1,0,0.01,0.00,-0.03,0.02,0.00,0.00,0.09,125,30
2788,-27.8,-8.1,77.7,-0.016,0.004,-1.210,9.8,-3.2,0.0,0.0390,0.0015,-0.0807,686,1165,867,1062,-0.02,0.01,-0.32,0.09,0.4165,2,1,0,0.01,0.00,-0.03,0.02,0.00,0.00,0.09,126,30
2798,-18.9,-4.0,-2.4,0.089,0.072,-1.061,10.4,-2.4,0.0,0.0306,0.0011,0.0014,1009,948,997,777,-0.02,0.00,-0.33,0.09,0.4101,2,1,0,0.01,0.00,-0.04,0.02,0.00,0.00,0.10,127,30
2808,-7.7,8.8,1.1,0.269,0.014,-1.303,11.1,-2.3,0.0,0.0181,-0.0078,-0.0180,840,1009,916,960,-0.02,0.00,-0.31,0.10,0.4093,2,1,0,0.01,0.00,-0.04,0.02,0.00,0.00,0.11,126,30
2818,-5.4,-5.5,72.8,0.138,0.057,-1.468,11.4,-2.1,0.0,0.0164,-0.0014,-0.0718,754,1028,849,1049,-0.03,0.00,-0.32,0.10,0.4034,2,1,0,0.01,0.00,-0.04,0.03,0.00,0.00,0.11,125,30
2828,-3.9,-20.6,-99.3,0.053,0.018,-1.203,11.9,-1.9,0.0,0.0122,0.0053,0.0897,1061,825,1155,826,-0.03,0.00,-0.32,0.11,0.4281,2,1,0,0.01,0.00,-0.04,0.03,0.00,0.00,0.11,126,30
2838,-16.6,-9.9,119.7,0.028,-0.028,-0.939,11.9,-1.4,0.0,0.0286,0.0080,-0.1194,722,1231,777,1113,-0.03,0.00,-0.31,0.11,0.4250,2,1,0,0.01,0.00,-0.04,0.03,0.00,0.00,0.12,125,30
2848,-1.0,-8.3,-93.7,-0.047,-0.278,-0.765,11.9,-1.2,0.0,0.0142,0.0067,0.0927,1158,825,1154,705,-0.03,0.00,-0.32,0.11,0.4248,2,1,0,0.01,0.00,-0.04,0.04,0.00,0.00,0.13,126,30
2858,13.3,13.5,104.4,-0.175,0.150,-1.692,11.8,-1.2,0.0,0.0083,-0.0117,-0.1145,682,1192,775,1166,-0.03,0.00,-0.30,0.12,0.4214,2,1,0,0.01,0.00,-0.04,0.04,0.00,0.00,0.13,127,30
2868,4.6,2.8,-22.9,0.125,0.114,-1.404,11.3,-1.3,0.0,0.0080,-0.0046,0.0219,1016,842,1070,869,-0.02,0.00,-0.31,0.12,0.4188,2,1,0,0.01,0.00,-0.05,0.05,0.00,0.00,0.13,128,30
2879,5.4,5.1,-5.5,0.101,0.014,-0.994,11.1,-1.5,0.0,0.0050,-0.0087,-0.0020,829,966,875,1053,-0.02,0.00,-0.30,0.13,0.4091,2,1,0,0.01,0.00,-0.04,0.05,0.00,0.00,0.14,126,30
2889,10.9,-20.3,79.1,-0.004,0.129,-1.217,10.8,-1.3,0.0,0.0012,0.0186,-0.0802,851,1054,849,967,-0.02,0.00,-0.30,0.13,0.4087,2,1,0,0.01,0.00,-0.05,0.05,0.00,0.00,0.14,128,30
2899,7.9,-6.9,-82.8,0.125,0.131,-1.009,10.7,-1.7,0.0,0.0040,0.0048,0.0817,1036,831,1082,737,-0.02,0.00,-0.30,0.14,0.4042,2,1,0,0.01,0.00,-0.05,0.06,0.00,0.00,0.15,128,30
2909,-9.1,-1.8,131.2,-0.005,0.019,-1.349,10.2,-2.2,0.0,0.0176,-0.0061,-0.1303,641,1171,726,1162,-0.02,0.00,-0.29,0.14,0.4059,2,1,0,0.01,0.00,-0.05,0.06,0.00,0.00,0.16,127,30
2919,14.3,3.2,-90.7,0.121,-0.142,-1.189,9.9,-2.6,0.0,-0.0031,-0.0063,0.0896,1068,703,1124,803,-0.02,0.00,-0.30,0.15,0.4056,2,1,0,0.01,0.00,-0.06,0.07,0.00,0.00,0.16,125,30
2929,-1.8,24.5,112.2,-0.085,0.083,-1.270,10.0,-2.6,0.0,0.0122,-0.0213,-0.1246,736,1292,824,1288,-0.02,0.01,-0.28,0.15,0.4642,2,1,0,0.01,0.00,-0.05,0.07,0.00,0.00,0.16,126,30
2939,6.2,11.1,-36.1,-0.087,-0.030,-1.345,9.8,-2.8,0.0,0.0048,-0.0144,0.0349,1136,923,1157,913,-0.02,0.01,-0.30,0.16,0.4627,2,1,0,0.01,0.00,-0.06,0.08,0.00,0.00,0.16,125,30
2949,4.3,12.4,1.3,0.089,-0.100,-1.200,9.9,-2.8,0.0,0.0069,-0.0158,-0.0025,948,1138,1033,1145,-0.02,0.01,-0.28,0.17,0.4806,2,1,0,0.01,0.00,-0.06,0.07,0.00,0.00,0.17,126,30
2959,-4.5,-2.0,69.9,-0.031,0.078,-1.113,9.7,-2.5,0.0,0.0203,0.0000,-0.0543,937,1180,1012,1092,-0.02,0.00,-0.29,0.17,0.4749,2,1,0,0.01,0.00,-0.07,0.08,0.00,0.00,0.18,125,30
2969,7.4,-5.4,-89.0,-0.013,-0.206,-1.190,9.2,-2.3,0.0,0.0014,0.0031,0.0852,1184,908,1145,912,-0.02,0.00,-0.28,0.18,0.4654,2,1,0,0.01,0.00,-0.07,0.08,0.00,0.00,0.19,126,30
2980,7.7,-10.2,147.1,-0.050,0.009,-1.306,8.7,-2.1,0.0,-0.0054,0.0063,-0.1473,779,1288,723,1312,-0.02,0.00,-0.27,0.18,0.4592,2,1,0,0.01,0.00,-0.07,0.08,0.00,0.00,0.19,126,30
2990,21.1,7.2,-98.1,0.224,0.116,-1.173,8.3,-2.1,0.0,-0.0115,-0.0098,0.0969,1189,766,1205,877,-0.01,0.00,-0.28,0.19,0.4506,2,1,0,0.01,0.00,-0.07,0.08,0.00,0.00,0.20,128,30
3000,12.2,-5.3,103.2,-0.080,0.295,-1.333,7.9,-1.7,0.0,-0.0029,0.0031,-0.1045,792,1213,749,1216,-0.01,0.00,-0.27,0.20,0.4417,2,1,0,0.01,0.00,0.42,-0.18,0.00,0.00,0.21,128,31
3010,5.5,-37.2,-36.2,0.143,-0.061,-1.282,7.8,-1.5,0.0,0.0075,0.0351,0.0535,1209,1003,1125,839,-0.01,0.00,-0.28,0.20,0.4689,2,1,0,0.01,0.00,0.30,-0.21,0.00,0.00,0.21,129,31
3020,1.1,-0.5,4.6,-0.033,-0.162,-1.464,7.6,-1.7,0.0,0.0078,-0.0015,-0.0059,932,1113,1022,1052,-0.01,0.00,-0.26,0.21,0.4613,2,1,0,0.01,0.00,0.21,-0.14,0.00,0.00,0.22,129,31
3030,16.3,28.5,92.1,-0.193,-0.102,-1.335,6.9,-1.8,0.0,-0.0040,-0.0324,-0.0771,915,1156,1027,1284,-0.01,0.00,-0.27,0.22,0.4963,2,1,0,0.01,0.00,0.21,-0.04,0.00,0.00,0.22,130,31
3040,13.4,15.0,-74.0,-0.087,-0.084,-1.129,6.4,-1.8,0.0,-0.0077,-0.0167,0.0695,1194,927,1184,1031,-0.01,0.00,-0.26,0.23,0.4902,2,1,0,0.01,0.00,0.20,-0.03,0.00,0.00,0.23,131,31
3050,11.8,-26.9,133.0,0.088,0.391,-1.266,6.0,-1.7,0.0,-0.0044,0.0249,-0.1343,942,1425,836,1345,-0.01,0.00,-0.25,0.23,0.5181,2,1,0,0.01,0.00,0.22,-0.06,0.00,0.00,0.24,130,31
3060,3.5,-16.1,-96.9,-0.056,-0.165,-1.556,5.9,-1.8,0.0,0.0000,0.0202,0.0967,1353,986,1265,903,-0.01,0.00,-0.26,0.24,0.5127,2,1,0,0.01,0.00,0.20,-0.07,0.00,0.00,0.25,131,31
3070,-1.7,28.9,103.5,-0.305,-0.306,-1.440,5.8,-2.1,0.0,0.0089,-0.0315,-0.1049,827,1294,956,1344,0.00,0.00,-0.24,0.25,0.5014,2,1,0,0.01,0.00,0.17,-0.08,0.00,0.00,0.25,131,31
3080,9.8,10.4,-19.3,0.214,0.091,-1.410,5.6,-2.9,0.0,-0.0071,-0.0210,0.0333,1133,942,1203,1066,0.00,0.00,-0.25,0.26,0.4912,2,1,0,0.01,0.00,0.18,-0.08,0.00,0.00,0.26,132,31
3091,0.0,-17.8,9.4,0.456,0.398,-1.473,5.9,-3.2,0.0,0.0092,0.0112,-0.0157,959,1153,1030,1111,0.00,0.01,-0.24,0.27,0.4792,2,1,0,0.01,0.00,0.20,-0.08,0.00,0.00,0.27,132,31
3101,15.6,-10.9,94.4,-0.016,0.213,-1.542,5.6,-3.0,0.0,-0.0087,0.0074,-0.0958,955,1213,867,1177,0.00,0.01,-0.24,0.28,0.4738,2,1,0,0.01,0.00,0.21,-0.08,0.00,0.00,0.28,131,31
3111,-5.5,15.1,-87.5,-0.196,-0.377,-1.453,5.7,-3.5,0.0,0.0134,-0.0118,0.0733,1125,931,1197,913,0.00,0.01,-0.24,0.29,0.4677,2,1,0,0.01,0.00,0.21,-0.08,0.00,0.00,0.30,130,31
3121,-4.6,20.7,131.2,-0.196,-0.166,-1.162,5.9,-3.9,0.0,0.0124,-0.0251,-0.1331,783,1341,930,1382,0.00,0.01,-0.23,0.30,0.5036,2,1,0,0.01,0.00,0.20,-0.07,0.00,0.00,0.31,130,31
3131,-34.8,-14.9,-99.2,0.300,-0.224,-1.174,6.2,-4.1,0.0,0.0426,0.0104,0.0977,1220,959,1375,857,-0.01,0.01,-0.23,0.31,0.5001,2,1,0,0.01,0.00,0.20,-0.08,0.00,0.00,0.32,129,31
3141,-7.2,-12.1,112.4,0.065,0.395,-1.143,6.8,-3.6,0.0,0.0168,0.0086,-0.1159,885,1437,953,1307,-0.01,0.01,-0.22,0.32,0.5227,2,1,0,0.01,0.00,0.20,-0.11,0.00,0.00,0.33,128,31
3151,11.9,-15.2,1.7,0.257,0.252,-1.423,6.8,-3.4,0.0,-0.0037,0.0113,-0.0032,1173,1106,1156,1092,-0.01,0.01,-0.23,0.33,0.5153,2,1,0,0.01,0.00,0.19,-0.10,0.00,0.00,0.34,128,31
3161,11.4,-13.2,9.6,0.028,0.072,-1.282,7.0,-3.0,0.0,-0.0027,0.0098,-0.0176,1048,1211,1021,1167,-0.01,0.01,-0.21,0.34,0.5048,2,1,0,0.01,0.00,0.18,-0.11,0.00,0.00,0.35,128,31
3171,0.9,4.0,72.9,-0.127,-0.303,-1.339,6.8,-2.6,0.0,0.0073,-0.0072,-0.0745,973,1203,1011,1217,-0.01,0.00,-0.21,0.35,0.4992,2,1,0,0.01,0.00,0.17,-0.10,0.00,0.00,0.36,128,31
3181,-1.0,29.5,-69.4,-0.062,-0.261,-1.763,6.9,-2.3,0.0,0.0088,-0.0314,0.0659,1144,966,1262,1017,-0.01,0.00,-0.21,0.36,0.4972,2,1,0,0.01,0.00,0.17,-0.09,0.00,0.00,0.37,129,31
3192,-8.0,-6.7,144.5,0.117,0.320,-1.310,7.2,-1.8,0.0,0.0167,0.0043,-0.1462,775,1357,856,1295,-0.01,0.00,-0.20,0.38,0.4831,2,1,0,0.01,0.00,0.17,-0.09,0.00,0.00,0.38,129,31
3202,-8.1,-49.7,-72.1,0.415,0.299,-1.062,7.3,-1.1,0.0,0.0142,0.0485,0.0695,1250,1038,1120,816,-0.01,0.00,-0.20,0.39,0.4754,2,1,0,0.01,0.00,0.19,-0.07,0.00,0.00,0.39,129,31
3212,16.2,-11.6,87.2,-0.327,-0.087,-0.903,7.5,-0.5,0.0,-0.0073,0.0106,-0.0890,894,1306,771,1180,-0.01,0.00,-0.19,0.40,0.4658,2,1,0,0.01,0.00,0.20,-0.08,0.00,0.00,0.40,129,31
3222,2.3,14.3,3.1,-0.130,-0.447,-1.243,7.4,-0.6,0.0,0.0011,-0.0237,0.0132,1037,935,1129,1045,-0.01,0.00,-0.20,0.41,0.4651,2,1,0,0.01,0.00,0.17,-0.04,0.00,0.00,0.41,129,31
3232,3.5,-8.6,15.2,0.262,0.071,-1.444,7.6,-0.4,0.0,0.0055,0.0077,-0.0170,909,1106,980,1122,-0.01,0.00,-0.18,0.43,0.4614,2,1,0,0.01,0.00,0.16,-0.05,0.00,0.00,0.42,129,31
3242,-2.1,-17.5,89.2,0.208,0.545,-1.304,7.7,0.1,0.0,0.0115,0.0173,-0.0909,921,1287,934,1157,-0.01,0.00,-0.18,0.44,0.4852,2,1,0,0.01,0.00,0.16,-0.03,0.00,0.00,0.43,129,31
3252,7.6,20.9,-67.4,-0.099,-0.264,-1.255,7.8,0.5,0.0,0.0016,-0.0158,0.0631,1173,997,1158,945,-0.01,0.00,-0.18,0.45,0.4820,2,1,0,0.01,0.00,0.19,-0.03,0.00,0.00,0.45,129,31
3262,-12.6,29.8,130.0,-0.437,-0.339,-1.236,8.0,0.3,0.0,0.0223,-0.0300,-0.1319,756,1308,864,1294,-0.01,0.00,-0.17,0.46,0.4751,2,1,0,0.01,0.00,0.18,0.00,0.00,0.00,0.46,129,31
3272,-21.2,-13.4,-84.0,0.272,-0.171,-1.201,8.3,0.3,0.0,0.0306,0.0132,0.0842,1191,944,1246,822,-0.01,0.00,-0.17,0.48,0.4725,2,1,0,0.01,0.00,0.15,-0.01,0.00,0.00,0.47,128,31
3283,-1.3,-19.1,101.4,0.109,0.364,-1.301,8.6,0.2,0.0,0.0114,0.0190,-0.1033,795,1301,848,1212,-0.01,0.00,-0.15,0.49,0.4663,2,1,0,0.01,0.00,0.12,-0.08,0.00,0.00,0.48,128,31
3293,-4.5,4.1,12.3,0.157,0.030,-1.318,8.3,0.2,0.0,0.0071,-0.0084,0.0014,1032,997,1075,1024,-0.01,0.00,-0.16,0.51,0.4628,2,1,0,0.01,0.00,0.12,-0.10,0.00,0.00,0.50,129,31
3303,1.3,-3.2,21.5,-0.023,0.120,-1.334,8.7,0.2,0.0,0.0090,0.0030,-0.0235,885,1164,951,1086,-0.01,0.00,-0.14,0.52,0.4570,2,1,0,0.01,0.00,0.11,-0.10,0.00,0.00,0.51,128,31
3313,0.1,-3.4,88.0,0.021,0.101,-1.061,8.7,0.3,0.0,0.0105,0.0045,-0.0880,869,1202,879,1101,-0.01,0.00,-0.15,0.53,0.4524,2,1,0,0.01,0.00,0.11,-0.10,0.00,0.00,0.52,128,31
3323,1.6,-0.1,-78.1,-0.170,-0.401,-1.279,8.8,0.3,0.0,0.0100,0.0021,0.0740,1128,944,1143,857,-0.02,0.00,-0.14,0.55,0.4551,2,1,0,0.01,0.00,0.11,-0.09,0.00,0.00,0.54,128,31
3333,-6.0,30.2,132.2,-0.254,-0.335,-0.944,8.8,0.2,0.0,0.0166,-0.0305,-0.1343,723,1208,832,1252,-0.02,0.00,-0.13,0.56,0.4477,2,1,0,0.01,0.00,0.14,-0.04,0.00,0.00,0.55,128,31
3343,3.7,6.8,-49.8,0.172,0.008,-1.248,8.9,0.0,0.0,0.0048,-0.0114,0.0557,1079,870,1151,900,-0.02,0.00,-0.13,0.58,0.4456,2,1,0,0.01,0.00,0.13,-0.01,0.00,0.00,0.57,128,31
3353,-13.1,-24.3,100.9,0.378,0.293,-1.398,9.2,0.1,0.0,0.0226,0.0202,-0.1122,737,1294,774,1188,-0.02,0.00,-0.12,0.59,0.4449,2,1,0,0.01,0.00,0.11,-0.02,0.00,0.00,0.58,128,31
3363,-8.4,-36.9,-5.2,-0.061,0.148,-1.025,9.0,0.4,0.0,0.0192,0.0371,0.0030,1070,1025,1018,869,-0.02,0.00,-0.12,0.61,0.4433,2,1,0,0.01,0.00,0.11,-0.01,0.00,0.00,0.59,128,31
3373,-0.7,4.9,14.1,0.026,-0.379,-1.118,9.2,0.4,0.0,0.0100,-0.0037,-0.0210,902,1076,929,1043,-0.02,0.00,-0.11,0.62,0.4390,2,1,0,0.01,0.00,0.12,-0.01,0.00,0.00,0.60,128,31
3383,1.6,22.4,98.1,0.015,0.177,-1.342,9.1,0.2,0.0,0.0091,-0.0226,-0.1003,755,1128,941,1156,-0.02,0.00,-0.11,0.64,0.4430,2,1,0,0.01,0.00,0.15,-0.03,0.00,0.00,0.62,127,31
3394,-2.2,3.9,-67.1,0.248,0.150,-1.139,9.1,0.4,0.0,0.0129,-0.0037,0.0561,1057,915,1111,880,-0.02,0.00,-0.10,0.65,0.4407,2,1,0,0.01,0.00,0.16,-0.05,0.00,0.00,0.65,127,31
3404,-1.9,-21.9,132.0,0.027,0.302,-0.966,9.2,0.8,0.0,0.0129,0.0225,-0.1343,817,1354,789,1231,-0.02,0.00,-0.09,0.67,0.4711,2,1,0,0.01,0.00,0.17,-0.07,0.00,0.00,0.66,127,31
3414,4.8,1.4,-60.9,0.031,-0.263,-1.264,9.3,0.9,0.0,0.0037,0.0007,0.0615,1206,925,1161,901,-0.02,0.00,-0.10,0.68,0.4713,2,1,0,0.01,0.00,0.20,-0.08,0.00,0.00,0.67,127,31
3424,-11.8,13.7,119.9,-0.132,-0.123,-1.222,9.4,0.9,0.0,0.0215,-0.0131,-0.1258,784,1353,879,1346,-0.02,0.00,-0.08,0.70,0.4937,2,1,0,0.01,0.00,0.21,-0.08,0.00,0.00,0.68,127,31
3434,7.1,-17.5,7.9,0.024,0.011,-0.950,9.2,1.1,0.0,0.0038,0.0183,-0.0102,1138,1093,1073,1015,-0.02,0.00,-0.08,0.72,0.4880,2,1,0,0.01,0.00,0.19,-0.06,0.00,0.00,0.70,127,31
3444,-3.2,-25.1,-4.8,0.146,-0.106,-1.045,9.4,1.1,0.0,0.0145,0.0254,-0.0155,1038,1198,1006,1056,-0.02,0.00,-0.07,0.73,0.4852,2,1,0,0.01,0.00,0.18,-0.07,0.00,0.00,0.71,127,31
3454,-1.7,5.6,104.8,-0.094,-0.163,-1.284,9.3,1.4,0.0,0.0129,-0.0046,-0.1072,915,1252,949,1158,-0.02,0.00,-0.07,0.75,0.4819,2,1,0,0.01,0.00,0.19,-0.06,0.00,0.00,0.73,127,31
3464,-1.1,13.6,-64.7,0.083,-0.016,-1.311,9.4,1.1,0.0,0.0176,-0.0160,0.0574,1068,967,1215,959,-0.02,0.00,-0.06,0.76,0.4735,2,1,0,0.01,0.00,0.19,-0.06,0.00,0.00,0.74,128,31
3474,-6.6,-28.8,149.5,0.231,0.355,-1.409,9.5,1.2,0.0,0.0175,0.0258,-0.1547,744,1396,750,1284,-0.02,0.00,-0.05,0.78,0.4687,2,1,0,0.01,0.00,0.21,-0.01,0.00,0.00,0.76,128,31
3485,-0.2,-34.9,-78.9,-0.043,0.169,-1.071,9.6,1.5,0.0,0.0112,0.0346,0.0780,1204,945,1173,817,-0.02,0.00,-0.06,0.80,0.4642,2,1,0,0.01,0.00,0.19,0.00,0.00,0.00,0.77,128,31
3495,5.2,16.2,100.3,-0.195,-0.279,-1.146,9.7,1.6,0.0,0.0062,-0.0088,-0.1118,780,1251,827,1234,-0.02,0.00,-0.04,0.81,0.4577,2,1,0,0.01,0.00,0.21,-0.01,0.00,0.00,0.79,128,31
3505,7.7,29.1,7.8,0.020,-0.072,-1.391,9.5,1.4,0.0,0.0036,-0.0281,-0.0103,973,943,1155,1012,-0.02,0.00,-0.05,0.83,0.4567,2,1,0,0.01,0.00,0.22,0.00,0.00,0.00,0.82,128,31
3515,-6.7,5.3,-2.0,0.285,0.202,-1.263,9.5,1.4,0.0,0.0198,-0.0092,-0.0148,907,1076,1023,1045,-0.02,0.00,-0.03,0.85,0.4523,2,1,0,0.01,0.00,0.20,-0.01,0.00,0.00,0.83,129,31
3525,0.6,-16.1,118.0,-0.054,0.188,-1.115,9.3,1.8,0.0,0.0105,0.0177,-0.1206,883,1249,799,1108,-0.02,0.00,-0.03,0.86,0.4508,2,1,0,0.01,0.00,0.19,-0.04,0.00,0.00,0.84,129,31
3535,-8.1,-11.1,-55.0,0.195,-0.240,-0.985,9.4,1.6,0.0,0.0195,0.0125,0.0523,1074,963,1062,892,-0.02,0.00,-0.02,0.88,0.4445,2,1,0,0.01,0.00,0.19,-0.06,0.00,0.00,0.86,129,31
3545,-2.8,0.8,150.0,0.010,0.080,-1.494,9.4,1.4,0.0,0.0142,-0.0011,-0.1550,655,1316,729,1284,-0.02,0.00,-0.01,0.90,0.4436,2,1,0,0.01,0.00,0.19,-0.08,0.00,0.00,0.87,129,31
3555,-4.7,-2.6,-78.8,0.144,-0.192,-0.938,9.3,1.5,0.0,0.0160,0.0038,0.0761,1128,879,1153,826,-0.02,0.00,-0.02,0.92,0.4438,2,1,0,0.01,0.00,0.18,-0.08,0.00,0.00,0.89,130,31
3565,5.7,9.0,76.3,-0.251,-0.168,-0.866,9.3,1.6,0.0,0.0053,-0.0012,-0.0889,802,1187,812,1153,-0.02,0.00,0.00,0.93,0.4395,2,1,0,0.01,0.00,0.18,-0.10,0.00,0.00,0.91,129,31
3575,6.7,19.5,21.6,-0.097,-0.141,-1.221,9.0,1.6,0.0,0.0041,-0.0183,-0.0244,1002,953,1038,972,-0.02,0.00,-0.01,0.95,0.4411,2,1,0,0.01,0.00,0.19,-0.07,0.00,0.00,0.93,129,31
3585,-4.9,8.0,10.5,0.028,-0.078,-1.185,9.0,1.3,0.0,0.0159,-0.0069,-0.0134,887,1056,981,1025,-0.02,0.00,0.00,0.97,0.4390,2,1,0,0.01,0.00,0.20,-0.08,0.00,0.00,0.95,129,31
3596,-6.5,-20.7,109.4,0.170,0.100,-1.116,8.9,1.5,0.0,0.0173,0.0213,-0.1096,796,1230,798,1105,-0.02,0.00,0.00,0.99,0.4363,2,1,0,0.01,0.00,0.21,-0.08,0.00,0.00,0.95,129,31
3606,-4.9,-19.2,-76.7,-0.035,-0.048,-1.134,9.3,1.4,0.0,0.0172,0.0191,0.0730,1082,934,1130,799,-0.02,0.00,0.00,1.00,0.4384,2,1,0,0.01,0.00,0.20,-0.07,0.00,0.00,0.96,129,31
3616,-10.9,-2.8,134.3,-0.145,-0.134,-1.196,9.3,1.6,0.0,0.0240,0.0066,-0.1366,702,1312,763,1155,-0.02,0.00,0.02,1.02,0.4367,2,1,0,0.01,0.00,0.17,-0.06,0.00,0.00,0.98,129,31
3626,-3.8,-0.1,-57.9,0.124,-0.068,-1.191,9.2,1.2,0.0,0.0150,0.0011,0.0549,1049,871,1175,842,-0.02,0.00,0.01,1.04,0.4372,2,1,0,0.01,0.00,0.15,-0.06,0.00,0.00,1.00,128,31
3636,2.2,17.5,90.1,0.112,0.301,-1.063,9.1,1.2,0.0,0.0048,-0.0189,-0.1082,717,1174,803,1231,-0.02,0.00,0.03,1.06,0.4357,2,1,0,0.01,0.00,0.16,-0.08,0.00,0.00,1.03,128,31
3646,4.7,-11.6,10.3,0.242,0.363,-0.943,9.1,1.6,0.0,0.0077,0.0147,-0.0080,1023,1023,990,889,-0.02,0.00,0.02,1.07,0.4359,2,1,0,0.01,0.00,0.19,-0.05,0.00,0.00,1.05,128,31
3656,6.9,-7.7,-9.4,0.016,-0.014,-1.240,9.4,1.4,0.0,0.0043,0.0089,0.0063,970,1043,950,951,-0.02,0.00,0.04,1.09,0.4343,2,1,0,0.01,0.00,0.20,-0.06,0.00,0.00,1.06,128,31
3666,-0.6,11.0,123.6,-0.187,0.126,-1.249,9.2,1.5,0.0,0.0128,-0.0059,-0.1152,749,1203,808,1160,-0.02,0.00,0.04,1.11,0.4350,2,1,0,0.01,0.00,0.20,-0.08,0.00,0.00,1.06,129,31
3676,7.8,-3.3,-69.8,-0.007,0.038,-1.258,9.3,1.3,0.0,0.0058,0.0048,0.0651,1084,893,1106,830,-0.02,0.00,0.04,1.13,0.4342,2,1,0,0.01,0.00,0.19,-0.08,0.00,0.00,1.07,130,31
3686,-2.2,-20.9,135.9,-0.008,0.043,-0.951,9.2,1.5,0.0,0.0130,0.0224,-0.1400,653,1234,620,1110,-0.02,0.00,0.05,1.14,0.3950,2,1,0,0.01,0.00,0.19,-0.10,0.00,0.00,1.09,130,31
3696,6.4,-12.0,-82.3,-0.034,-0.198,-0.677,9.0,1.4,0.0,0.0049,0.0108,0.0867,1083,763,1069,707,-0.02,0.00,0.05,1.16,0.3956,2,1,0,0.01,0.00,0.19,-0.09,0.00,0.00,1.11,130,31
3707,4.4,17.2,95.7,-0.175,-0.067,-1.138,9.0,1.3,0.0,0.0065,-0.0162,-0.0990,490,942,583,970,-0.02,0.00,0.07,1.18,0.3114,2,1,0,0.01,0.00,0.21,-0.10,0.00,0.00,1.13,131,31
3717,10.1,13.8,37.6,-0.012,-0.003,-0.806,8.5,1.2,0.0,0.0001,-0.0184,-0.0225,695,731,769,810,-0.01,0.00,0.06,1.19,0.3140,2,1,0,0.01,0.00,0.24,-0.11,0.00,0.00,1.14,131,31
3727,1.9,17.6,-9.0,0.087,0.039,-1.015,8.7,1.2,0.0,0.0116,-0.0179,0.0010,582,716,720,733,-0.01,0.00,0.07,1.21,0.2803,2,1,0,0.01,0.00,0.24,-0.10,0.00,0.00,1.15,131,31
3737,19.8,7.2,113.5,-0.026,0.056,-0.952,8.1,1.3,0.0,-0.0096,-0.0061,-0.1168,511,878,520,944,-0.01,0.00,0.07,1.23,0.2939,2,1,0,0.01,0.00,0.24,-0.10,0.00,0.00,1.18,131,31
3747,22.0,9.7,-79.5,-0.086,0.063,-0.746,8.1,1.2,0.0,-0.0051,-0.0079,0.0749,785,507,814,539,-0.01,0.00,0.08,1.25,0.2664,2,1,0,0.01,0.00,0.24,-0.09,0.00,0.00,1.22,131,31
3757,12.4,31.1,136.9,-0.177,0.166,-0.727,7.9,1.4,0.0,-0.0024,-0.0300,-0.1403,376,921,458,978,-0.01,0.00,0.09,1.26,0.2780,2,1,0,0.01,0.00,0.20,-0.09,0.00,0.00,1.23,131,31
3767,17.1,-10.7,-70.7,0.044,0.045,-0.741,7.5,1.4,0.0,-0.0098,0.0116,0.0749,793,456,713,455,-0.01,0.00,0.08,1.28,0.2362,2,1,0,0.01,0.00,0.20,-0.10,0.00,0.00,1.24,131,31
3777,16.3,-7.4,75.7,-0.047,0.123,-0.593,7.4,1.4,0.0,-0.0068,0.0086,-0.0792,452,839,394,811,-0.01,0.00,0.10,1.30,0.2467,2,1,0,0.01,0.00,0.20,-0.12,0.00,0.00,1.25,131,31
3787,3.7,10.3,30.0,-0.041,0.092,-0.709,7.2,1.6,0.0,0.0053,-0.0065,-0.0283,508,547,503,522,-0.01,0.00,0.09,1.31,0.1916,2,1,0,0.01,0.00,0.19,-0.11,0.00,0.00,1.27,131,31
3798,10.1,0.4,-35.9,-0.070,0.134,-0.548,7.3,1.5,0.0,-0.0008,0.0007,0.0324,531,590,563,518,-0.01,0.00,0.11,1.33,0.2077,2,1,0,0.01,0.00,0.20,-0.13,0.00,0.00,1.28,132,31
3808,2.6,0.0,122.7,0.050,0.053,-0.667,6.9,1.6,0.0,0.0062,0.0012,-0.1262,219,679,224,634,-0.01,0.00,0.11,1.34,0.1487,2,1,0,0.01,0.00,0.19,-0.14,0.00,0.00,1.31,132,31
3818,5.8,32.6,-86.6,0.004,-0.103,-0.459,6.7,1.3,0.0,0.0029,-0.0316,0.0830,569,297,667,365,-0.01,0.00,0.11,1.35,0.1676,2,1,0,0.01,0.00,0.15,-0.15,0.00,0.00,1.34,132,31
3828,-6.0,28.7,139.8,-0.126,0.132,-0.642,6.6,1.7,0.0,0.0157,-0.0229,-0.1446,158,783,226,719,-0.01,0.00,0.12,1.37,0.1303,2,1,1,0.01,0.00,0.10,-0.17,0.00,0.00,1.35,132,31
3838,-3.6,4.6,-78.7,0.068,-0.243,-0.362,6.3,1.5,0.0,0.0126,0.0004,0.0769,592,341,609,258,-0.01,0.00,0.12,1.38,0.1546,2,1,0,0.01,0.00,0.08,-0.20,0.00,0.00,1.36,132,31
3848,9.1,0.8,89.3,-0.142,0.064,0.295,6.1,1.4,0.0,-0.0008,0.0020,-0.0975,289,689,269,672,-0.01,0.00,0.13,1.39,0.1703,2,1,0,0.01,0.00,0.10,-0.22,0.00,0.00,1.37,132,31
3858,17.6,-12.4,17.9,-0.030,0.162,-0.045,5.8,1.5,0.0,-0.0088,0.0135,-0.0156,530,556,445,538,-0.01,0.00,0.12,1.40,0.1901,2,1,0,0.01,0.00,0.10,-0.21,0.00,0.00,1.38,132,31
3868,1.0,-4.8,-26.7,0.103,-0.036,-0.302,5.9,1.1,0.0,0.0079,0.0047,0.0176,428,391,439,343,-0.01,0.00,0.14,1.42,0.1281,2,1,0,0.01,0.00,0.11,-0.23,0.00,0.00,1.41,132,31
3878,-0.4,9.2,113.3,-0.148,0.068,-0.038,5.5,0.9,0.0,0.0079,-0.0080,-0.1138,244,592,305,562,0.00,0.00,0.14,1.43,0.1462,2,1,0,0.01,0.00,0.11,-0.24,0.00,0.00,1.45,132,31
3888,12.2,16.2,-78.0,-0.152,-0.094,0.331,5.2,0.9,0.0,-0.0052,-0.0138,0.0731,572,313,559,350,0.00,0.00,0.14,1.44,0.1589,2,1,0,0.01,0.00,0.11,-0.27,0.00,0.00,1.46,132,31
3898,3.8,-12.4,136.6,0.127,0.206,-0.634,5.3,1.0,0.0,0.0033,0.0148,-0.1412,247,791,176,706,0.00,0.00,0.15,1.45,0.1688,2,1,0,0.01,0.00,0.12,-0.26,0.00,0.00,1.46,132,31
3908,-3.3,22.6,-72.7,0.008,-0.258,-0.080,5.1,0.5,0.0,0.0099,-0.0187,0.0756,624,361,720,383,0.00,0.00,0.15,1.46,0.1926,2,1,0,0.01,0.00,0.11,-0.27,0.00,0.00,1.47,132,31
3918,5.2,53.1,87.7,-0.366,0.053,0.560,5.0,0.9,0.0,0.0018,-0.0526,-0.0914,266,720,347,764,0.00,0.00,0.16,1.47,0.1939,2,1,0,0.01,0.00,0.04,-0.28,0.00,0.00,1.49,133,31
3928,4.9,-17.3,11.0,0.018,0.141,-1.071,4.8,1.2,0.0,0.0021,0.0275,-0.0096,708,676,482,435,0.00,0.00,0.15,1.48,0.2208,2,1,0,0.01,0.00,0.16,-0.27,0.00,0.00,1.50,133,31
3938,2.5,-39.2,-14.1,0.102,-0.067,-0.138,4.8,0.4,0.0,0.0043,0.0396,0.0105,630,761,483,520,0.00,0.00,0.17,1.48,0.2330,2,1,0,0.01,0.00,0.25,-0.30,0.00,0.00,1.51,133,31
3948,4.7,-2.7,112.5,-0.602,0.115,0.690,4.5,0.4,0.0,0.0045,0.0033,-0.1074,401,803,421,779,0.00,0.00,0.17,1.49,0.2346,2,1,0,0.01,0.00,0.24,-0.32,0.00,0.00,1.52,133,31
3958,6.5,-66.3,-87.7,0.195,0.181,-0.408,4.6,0.5,0.0,0.0014,0.0682,0.0829,893,623,658,362,0.00,0.00,0.17,1.50,0.2518,2,1,0,0.01,0.00,0.26,-0.32,0.00,0.00,1.53,133,31
3968,-6.8,-54.9,113.9,0.218,0.319,-0.475,4.6,0.1,0.0,0.0136,0.0551,-0.1177,470,993,387,778,0.00,0.00,0.18,1.50,0.2642,2,1,0,0.01,0.00,0.30,-0.34,0.00,0.00,1.53,133,31
3978,2.7,-20.1,-49.9,-0.343,-0.289,-0.635,4.0,0.4,0.0,0.0007,0.0187,0.0486,805,563,775,587,0.00,0.00,0.18,1.51,0.2777,2,1,0,0.01,0.00,0.27,-0.33,0.00,0.00,1.53,133,31
3988,37.5,-48.3,72.6,0.248,0.129,-0.282,4.0,0.6,0.0,-0.0314,0.0488,-0.0764,645,859,413,895,0.00,0.00,0.19,1.52,0.2884,2,1,0,0.01,0.00,0.21,-0.33,0.00,0.00,1.52,133,31
3999,24.4,-24.4,31.8,0.322,0.732,-0.259,4.7,-0.1,0.0,-0.0027,-0.0058,-0.0209,633,703,757,768,0.00,0.00,0.18,1.52,0.2950,2,1,0,0.01,0.00,0.17,-0.35,0.00,0.00,1.55,133,31
4009,-23.6,41.8,-25.4,-0.181,-0.008,-0.147,4.6,0.4,0.0,0.0304,-0.0417,0.0216,525,697,906,780,0.00,0.00,0.20,1.52,0.3012,2,1,0,0.01,0.00,0.14,-0.41,0.00,0.00,1.57,133,31
4019,-26.6,-30.2,110.7,0.497,-0.507,-0.564,4.0,0.6,0.0,0.0329,0.0307,-0.1145,518,995,598,892,0.00,0.00,0.20,1.53,0.3139,2,1,0,0.01,0.00,0.16,-0.42,0.00,0.00,1.58,133,31
4029,29.3,14.1,-71.4,0.311,-0.105,-0.421,4.0,-0.1,0.0,-0.0252,-0.0240,0.0665,808,466,916,795,0.00,0.00,0.20,1.53,0.3113,2,1,0,0.01,0.00,0.11,-0.42,0.00,0.00,1.58,133,31
4039,33.5,67.5,112.7,-0.696,0.577,-0.713,4.1,0.6,0.0,-0.0274,-0.0673,-0.1166,437,803,625,1157,0.00,0.00,0.21,1.54,0.3163,2,1,0,0.01,0.00,0.08,-0.42,0.00,0.00,1.56,134,31
4049,5.9,-17.5,-56.3,-0.063,0.175,-0.653,3.9,1.2,0.0,0.0021,0.0231,0.0618,949,712,865,594,0.00,0.00,0.20,1.54,0.3292,2,1,0,0.01,0.00,0.12,-0.44,0.00,0.00,1.54,134,31
4059,-26.4,-58.5,74.6,0.428,-0.285,-0.422,3.9,0.9,0.0,0.0325,0.0594,-0.0785,607,1090,566,865,0.00,0.00,0.22,1.54,0.3304,2,1,0,0.01,0.00,0.11,-0.46,0.00,0.00,1.57,134,31
4069,8.0,6.8,26.7,-0.131,-0.150,-0.854,3.4,1.0,0.0,-0.0048,-0.0086,-0.0179,766,777,787,847,0.00,0.00,0.21,1.54,0.3368,2,1,0,0.01,0.00,0.06,-0.43,0.00,0.00,1.59,133,31
4079,36.3,21.2,-21.0,-0.108,0.318,-0.689,3.6,1.2,0.0,-0.0306,-0.0203,0.0170,804,704,788,915,0.00,0.00,0.23,1.54,0.3414,2,1,0,0.01,0.00,0.08,-0.46,0.00,0.00,1.57,134,31
4090,-2.6,-4.4,107.0,0.056,0.264,-0.616,3.9,1.2,0.0,0.0147,0.0017,-0.0992,597,1011,666,940,0.00,0.00,0.23,1.55,0.3416,2,1,0,0.01,0.00,0.13,-0.48,0.00,0.00,1.55,134,31
4100,-29.6,32.5,-73.8,0.004,-0.426,-0.815,3.5,1.2,0.0,0.0354,-0.0315,0.0698,826,700,1017,710,0.00,0.00,0.23,1.55,0.3469,2,1,0,0.01,0.00,0.16,-0.52,0.00,0.00,1.57,134,31
4110,-4.2,20.7,145.4,-0.114,-0.028,-0.751,3.3,1.6,0.0,0.0097,-0.0194,-0.1495,518,1116,571,1110,0.00,0.00,0.24,1.55,0.3552,2,1,0,0.01,0.00,0.18,-0.50,0.00,0.00,1.58,134,31
4120,21.0,0.0,-71.0,0.148,0.021,-0.611,3.2,1.6,0.0,-0.0163,0.0041,0.0689,1026,679,899,685,0.00,0.00,0.23,1.55,0.3517,2,1,0,0.01,0.00,0.14,-0.51,0.00,0.00,1.58,134,31
4130,5.2,11.8,91.1,-0.111,-0.026,-1.077,3.3,1.5,0.0,0.0002,-0.0105,-0.0953,617,1021,624,1051,0.00,0.00,0.25,1.55,0.3548,2,1,0,0.01,0.00,0.12,-0.54,0.00,0.00,1.58,135,31
4140,5.1,-2.1,24.9,0.029,-0.011,-0.993,3.0,1.6,0.0,-0.0004,0.0086,-0.0135,862,869,814,826,0.00,0.00,0.24,1.55,0.3624,2,1,0,0.01,0.00,0.11,-0.55,0.00,0.00,1.60,135,31
4150,12.6,2.1,-11.6,0.142,-0.077,-0.813,3.1,1.3,0.0,-0.0073,-0.0010,0.0075,788,848,798,911,0.00,0.00,0.26,1.55,0.3590,2,1,0,0.01,0.00,0.12,-0.56,0.00,0.00,1.63,135,31
4160,9.5,29.2,118.4,-0.107,0.159,-0.657,3.1,1.2,0.0,-0.0043,-0.0307,-0.1182,590,946,706,1093,0.00,0.00,0.26,1.55,0.3577,2,1,0,0.01,0.00,0.14,-0.59,0.00,0.00,1.61,135,31
4170,3.6,35.7,-79.5,-0.071,0.024,-0.957,3.3,1.4,0.0,0.0018,-0.0346,0.0753,897,681,1013,756,0.00,0.00,0.26,1.55,0.3593,2,1,0,0.01,0.00,0.13,-0.63,0.00,0.00,1.59,135,31
4181,-2.5,8.2,140.7,-0.054,0.080,-1.208,3.2,1.6,0.0,0.0062,-0.0002,-0.1465,568,1140,567,1106,0.00,0.00,0.27,1.55,0.3638,2,1,0,0.01,0.00,0.12,-0.66,0.00,0.00,1.60,135,31
4191,9.2,-13.0,-70.7,0.013,-0.045,-0.900,3.2,1.1,0.0,-0.0038,0.0141,0.0665,984,684,1012,719,0.00,0.00,0.27,1.55,0.3661,2,1,0,0.01,0.00,0.15,-0.68,0.00,0.00,1.61,135,31
4201,0.0,5.2,97.2,0.133,0.186,-0.948,3.2,0.9,0.0,0.0054,-0.0044,-0.1015,533,1030,693,1141,0.00,0.00,0.28,1.55,0.3658,2,1,0,0.01,0.00,0.18,-0.69,0.00,0.00,1.60,135,31
4211,13.0,4.5,15.3,0.094,0.069,-0.615,3.1,0.8,0.0,-0.0066,-0.0081,-0.0138,822,788,908,869,0.00,0.00,0.27,1.55,0.3646,2,1,0,0.01,0.00,0.20,-0.70,0.00,0.00,1.58,135,31
4221,2.9,12.4,-11.4,-0.146,0.021,-0.952,3.2,0.8,0.0,0.0024,-0.0117,0.0071,753,876,864,911,0.00,0.00,0.29,1.55,0.3669,2,1,0,0.01,0.00,0.17,-0.73,0.00,0.00,1.59,135,31
4231,-2.6,17.7,103.1,-0.165,0.038,-0.963,2.9,1.3,0.0,0.0041,-0.0022,-0.0948,702,1031,679,1001,0.00,0.00,0.29,1.55,0.3682,2,1,0,0.01,0.00,0.18,-0.74,0.00,0.00,1.60,135,31
4241,23.7,-29.9,-68.1,0.090,-0.001,-1.088,2.8,1.2,0.0,-0.0214,0.0339,0.0611,1074,784,836,739,0.00,0.00,0.29,1.55,0.3707,2,1,0,0.01,0.00,0.20,-0.75,0.00,0.00,1.59,135,31
4251,5.5,-33.4,139.4,0.066,0.173,-1.191,2.9,1.2,0.0,-0.0003,0.0346,-0.1438,667,1188,505,1077,0.00,0.00,0.30,1.55,0.3714,2,1,0,0.01,0.00,0.25,-0.76,0.00,0.00,1.57,135,31
4261,12.5,-27.8,-82.4,0.447,-0.131,-0.877,2.7,0.7,0.0,-0.0144,0.0120,0.0807,1054,678,984,742,0.00,0.00,0.30,1.55,0.3739,2,1,0,0.01,0.00,0.28,-0.78,0.00,0.00,1.58,135,31
4271,-3.8,-1.4,101.3,0.210,0.126,-0.969,2.8,0.3,0.0,0.0088,0.0017,-0.1058,549,1020,706,1187,0.00,0.00,0.31,1.55,0.3744,2,1,0,0.01,0.00,0.20,-0.80,0.00,0.00,1.59,135,31
4281,4.1,26.4,0.3,0.083,0.035,-0.681,2.6,0.4,0.0,-0.0011,-0.0400,0.0130,831,732,992,906,0.00,0.00,0.31,1.55,0.3743,2,1,0,0.01,0.00,0.14,-0.82,0.00,0.00,1.58,135,31
4292,-5.4,32.6,4.9,-0.189,-0.099,-0.907,2.6,0.7,0.0,0.0103,-0.0322,-0.0094,722,915,869,970,0.00,0.00,0.32,1.55,0.3765,2,1,0,0.01,0.00,0.06,-0.84,0.00,0.00,1.57,135,31
4302,0.0,21.9,107.1,-0.183,0.167,-0.807,2.3,1.0,0.0,0.0071,-0.0063,-0.0956,703,1057,719,1000,0.00,0.00,0.32,1.55,0.3768,2,1,0,0.01,0.00,0.08,-0.84,0.00,0.00,1.57,135,31
4312,1.3,-1.5,-69.0,-0.115,-0.204,-0.867,1.9,1.3,0.0,0.0002,0.0112,0.0619,1063,838,874,709,0.00,0.00,0.33,1.55,0.3774,2,1,0,0.01,0.00,0.13,-0.84,0.00,0.00,1.57,135,31
4322,9.3,-10.3,157.6,-0.214,0.081,-0.934,1.7,1.4,0.0,-0.0055,0.0115,-0.1622,686,1247,481,1075,0.00,0.00,0.34,1.55,0.3782,2,1,0,0.01,0.00,0.14,-0.81,0.00,0.00,1.57,135,31
4332,-0.6,-32.0,-93.0,0.062,-0.182,-1.004,1.3,0.8,0.0,-0.0027,0.0322,0.0896,1113,747,978,668,0.00,0.00,0.33,1.54,0.3804,2,1,0,0.01,0.00,0.13,-0.79,0.00,0.00,1.57,135,31
4342,3.5,-28.3,112.7,0.111,0.043,-0.931,1.1,0.7,0.0,-0.0002,0.0290,-0.1174,638,1144,587,1126,0.00,0.00,0.35,1.54,0.3788,2,1,0,0.01,0.00,0.07,-0.77,0.00,0.00,1.59,135,31
4352,15.6,-27.4,-20.2,0.036,0.042,-1.096,0.5,0.4,0.0,-0.0182,0.0146,0.0278,987,782,903,836,0.00,0.00,0.34,1.54,0.3806,2,1,0,0.01,0.00,0.00,-0.73,0.00,0.00,1.61,135,31
4362,24.5,-9.7,8.8,0.132,0.153,-1.076,0.5,0.3,0.0,-0.0220,0.0100,-0.0136,755,921,800,1011,0.00,0.00,0.36,1.54,0.3779,2,1,0,0.01,0.00,-0.06,-0.73,0.00,0.00,1.58,135,31
4372,12.1,6.9,75.5,0.079,0.215,-0.990,0.0,0.2,0.0,-0.0108,-0.0121,-0.0763,737,880,816,1054,0.01,0.00,0.35,1.54,0.3777,2,1,0,0.01,0.00,-0.08,-0.75,0.00,0.00,1.56,136,31
4383,14.0,41.4,-83.8,0.123,-0.038,-1.018,-0.2,0.3,0.0,-0.0127,-0.0425,0.0754,942,671,1032,863,0.01,0.00,0.36,1.54,0.3806,2,1,0,0.01,0.00,-0.09,-0.76,0.00,0.00,1.57,136,31
4393,13.3,30.8,138.3,-0.061,0.248,-0.835,-0.6,0.3,0.0,-0.0136,-0.0327,-0.1427,594,1054,654,1210,0.01,0.00,0.37,1.54,0.3812,2,1,0,0.01,0.00,-0.04,-0.75,0.00,0.00,1.58,136,31
4403,1.3,21.5,-93.6,-0.057,-0.012,-0.709,-0.7,0.3,0.0,0.0014,-0.0191,0.0900,1027,703,1074,698,0.01,0.00,0.36,1.54,0.3797,2,1,0,0.01,0.00,0.00,-0.79,0.00,0.00,1.59,136,31
4413,-7.8,15.5,120.8,-0.058,-0.087,-0.836,-1.0,0.3,0.0,0.0090,-0.0154,-0.1257,618,1141,621,1131,0.01,0.00,0.38,1.54,0.3809,2,1,0,0.01,0.00,0.00,-0.79,0.00,0.00,1.59,136,31
4423,-0.3,-2.6,-24.4,-0.074,-0.026,-0.846,-1.4,0.4,0.0,-0.0025,0.0243,0.0358,1040,848,883,729,0.01,0.00,0.37,1.54,0.3796,2,1,0,0.01,0.00,0.00,-0.78,0.00,0.00,1.59,136,31
4433,10.3,-12.9,43.2,-0.105,-0.098,-0.947,-1.6,0.4,0.0,-0.0099,0.0131,-0.0482,835,1069,598,983,0.01,0.00,0.39,1.54,0.3776,2,1,0,0.01,0.00,-0.06,-0.78,0.00,0.00,1.60,136,31
4443,-1.5,-21.9,90.2,-0.017,0.025,-1.146,-1.9,0.1,0.0,-0.0012,0.0314,-0.0809,836,1039,689,934,0.01,0.00,0.38,1.54,0.3793,2,1,0,0.01,0.00,-0.12,-0.79,0.00,0.00,1.61,136,31
4453,-3.5,-25.7,-72.1,0.058,-0.125,-0.872,-2.1,-0.2,0.0,0.0035,0.0254,0.0672,988,801,878,805,0.01,0.00,0.39,1.54,0.3759,2,1,0,0.01,0.00,-0.14,-0.83,0.00,0.00,1.60,135,31
4463,4.0,-36.6,140.8,0.057,0.015,-1.134,-2.2,-0.3,0.0,-0.0086,0.0277,-0.1442,640,1127,566,1146,0.01,0.00,0.40,1.54,0.3767,2,1,0,0.01,0.00,-0.09,-0.84,0.00,0.00,1.59,135,31
4474,13.4,-31.1,-92.4,0.042,-0.113,-0.971,-2.4,-0.6,0.0,-0.0138,0.0305,0.0874,1059,668,1019,749,0.01,0.00,0.40,1.54,0.3789,2,1,0,0.01,0.00,-0.02,-0.84,0.00,0.00,1.58,135,31
4484,14.2,-17.6,121.7,0.035,0.160,-1.061,-2.4,-0.5,0.0,-0.0130,0.0052,-0.1358,586,1103,609,1185,0.01,0.00,0.41,1.54,0.3772,2,1,0,0.01,0.00,0.02,-0.83,0.00,0.00,1.57,135,31
4494,4.2,-2.6,-31.2,0.238,-0.189,-1.028,-2.7,-1.0,0.0,-0.0086,-0.0110,0.0345,942,691,1002,872,0.01,0.00,0.40,1.54,0.3806,2,1,0,0.01,0.00,0.08,-0.84,0.00,0.00,1.59,135,31
4504,9.7,33.0,19.0,0.125,-0.002,-0.901,-2.6,-0.9,0.0,-0.0104,-0.0341,-0.0241,699,891,812,1094,0.01,0.00,0.42,1.54,0.3789,2,1,0,0.01,0.00,0.08,-0.85,0.00,0.00,1.60,136,31
4514,11.0,31.0,85.8,-0.049,0.125,-0.579,-2.9,-1.0,0.0,-0.0135,-0.0407,-0.0744,719,860,818,1055,0.02,0.00,0.42,1.54,0.3732,2,1,0,0.01,0.00,0.02,-0.83,0.00,0.00,1.59,135,31
4524,-2.0,37.5,-80.4,-0.039,-0.032,-0.722,-2.8,-0.9,0.0,0.0012,-0.0388,0.0753,904,695,1044,800,0.02,0.00,0.42,1.54,0.3721,2,1,0,0.01,0.00,-0.03,-0.85,0.00,0.00,1.60,135,31
4534,-4.4,25.8,150.8,-0.105,0.027,-0.861,-3.1,-0.7,0.0,0.0023,-0.0259,-0.1544,595,1098,607,1160,0.02,0.00,0.43,1.54,0.3742,2,1,0,0.01,0.00,-0.06,-0.86,0.00,0.00,1.61,135,31
4544,7.0,11.0,-83.5,-0.101,-0.094,-0.828,-3.2,-0.7,0.0,-0.0080,-0.0071,0.0803,1059,709,989,687,0.02,0.00,0.43,1.54,0.3722,2,1,0,0.01,0.00,-0.06,-0.85,0.00,0.00,1.61,135,31
4554,6.1,12.2,132.5,-0.295,0.140,-1.043,-3.3,-0.6,0.0,-0.0074,-0.0131,-0.1377,623,1173,544,1102,0.02,0.00,0.44,1.54,0.3720,2,1,0,0.01,0.00,-0.07,-0.85,0.00,0.00,1.60,135,31
4564,1.5,-11.5,-21.0,-0.019,0.030,-1.355,-3.5,-0.6,0.0,-0.0029,0.0276,0.0308,1016,853,866,727,0.02,0.00,0.43,1.54,0.3743,2,1,0,0.01,0.00,-0.03,-0.84,0.00,0.00,1.59,135,31
4574,1.2,-16.7,23.3,0.044,-0.039,-0.898,-3.6,-0.6,0.0,-0.0053,0.0198,-0.0357,826,1010,660,951,0.02,0.00,0.45,1.54,0.3726,2,1,0,0.01,0.00,-0.01,-0.84,0.00,0.00,1.58,135,31
4585,3.2,-31.1,86.0,0.000,0.076,-1.374,-3.7,-0.8,0.0,-0.0050,0.0301,-0.0913,799,1032,690,956,0.02,0.00,0.45,1.54,0.3765,2,1,0,0.01,0.00,0.00,-0.85,0.00,0.00,1.59,135,31
4595,1.7,-30.7,-79.4,0.085,-0.011,-0.863,-3.7,-1.1,0.0,-0.0002,0.0152,0.0631,975,774,967,758,0.02,0.00,0.45,1.54,0.3761,2,1,0,0.01,0.00,-0.02,-0.85,0.00,0.00,1.60,135,31
4605,-3.0,-31.3,135.6,0.133,0.164,-1.136,-3.8,-1.0,0.0,0.0011,0.0302,-0.1409,608,1122,606,1145,0.02,0.00,0.46,1.54,0.3771,2,1,0,0.01,0.00,-0.06,-0.84,0.00,0.00,1.58,135,31
4615,2.4,-13.6,-93.1,0.202,-0.150,-0.899,-4.0,-1.2,0.0,-0.0084,-0.0089,0.0899,1023,642,1071,763,0.02,0.00,0.46,1.54,0.3793,2,1,0,0.01,0.00,-0.11,-0.83,0.00,0.00,1.56,135,31
4625,-0.2,4.3,112.2,-0.061,0.144,-0.888,-3.8,-0.8,0.0,-0.0005,-0.0135,-0.1252,559,1084,669,1182,0.02,0.00,0.48,1.54,0.3787,2,1,0,0.01,0.00,-0.17,-0.85,0.00,0.00,1.56,135,31
4635,-4.5,17.6,-25.7,0.141,-0.049,-0.661,-4.0,-0.7,0.0,0.0025,-0.0186,0.0203,905,757,999,846,0.02,0.00,0.47,1.54,0.3804,2,1,0,0.01,0.00,-0.19,-0.84,0.00,0.00,1.56,135,31
4645,-1.5,40.6,-4.6,0.065,-0.005,-0.724,-3.8,-0.3,0.0,-0.0010,-0.0410,-0.0133,751,897,856,1007,0.02,0.00,0.48,1.53,0.3812,2,1,0,0.01,0.00,-0.21,-0.84,0.00,0.00,1.57,135,31
4655,-2.4,28.2,89.6,-0.061,0.057,-0.474,-3.8,-0.1,0.0,0.0005,-0.0287,-0.0950,741,1002,774,995,0.02,0.00,0.48,1.53,0.3811,2,1,0,0.01,0.00,-0.14,-0.84,0.00,0.00,1.57,135,31
4665,-7.1,17.7,-80.6,0.030,-0.028,-0.835,-3.6,0.1,0.0,0.0107,-0.0086,0.0705,979,779,1027,732,0.02,0.00,0.49,1.53,0.3816,2,1,0,0.01,0.00,-0.08,-0.82,0.00,0.00,1.58,135,31
4675,-16.6,2.0,148.6,-0.082,-0.132,-0.685,-3.7,0.5,0.0,0.0149,-0.0017,-0.1541,649,1203,583,1078,0.02,0.00,0.50,1.53,0.3812,2,1,0,0.01,0.00,-0.05,-0.82,0.00,0.00,1.59,135,31
4686,5.3,-12.4,-82.3,-0.003,-0.091,-1.061,-3.7,0.6,0.0,-0.0074,0.0184,0.0789,1125,772,958,665,0.02,0.00,0.49,1.53,0.3822,2,1,0,0.01,0.00,-0.03,-0.83,0.00,0.00,1.59,135,31
4696,-4.3,-13.6,115.4,-0.080,0.006,-1.110,-3.5,0.8,0.0,0.0028,0.0143,-0.1210,691,1213,551,1060,0.02,0.00,0.51,1.53,0.3816,2,1,0,0.01,0.00,-0.04,-0.82,0.00,0.00,1.60,135,31
4706,-2.2,-24.9,-4.1,0.187,-0.054,-1.347,-3.6,0.6,0.0,-0.0020,0.0256,0.0119,976,883,869,809,0.02,0.00,0.50,1.53,0.3844,2,1,0,0.01,0.00,-0.04,-0.79,0.00,0.00,1.58,135,31
4716,-11.1,-19.8,0.0,0.165,-0.107,-1.067,-3.4,0.7,0.0,0.0096,0.0204,-0.0056,809,983,774,954,0.02,0.00,0.51,1.53,0.3821,2,1,0,0.01,0.00,-0.07,-0.81,0.00,0.00,1.56,135,31
4726,8.1,-34.2,95.7,0.044,0.103,-1.283,-3.5,0.6,0.0,-0.0098,0.0348,-0.1013,771,1074,665,1030,0.02,0.00,0.51,1.53,0.3847,2,1,0,0.01,0.00,-0.08,-0.81,0.00,0.00,1.57,135,31
4736,7.6,-15.5,-77.0,0.062,-0.096,-1.079,-3.3,0.7,0.0,-0.0079,0.0138,0.0687,1002,772,982,783,0.02,0.00,0.52,1.53,0.3847,2,1,0,0.01,0.00,-0.09,-0.78,0.00,0.00,1.58,135,31
4746,7.0,-7.9,139.9,0.101,0.054,-0.991,-3.3,0.8,0.0,-0.0084,0.0087,-0.1456,632,1139,576,1177,0.02,0.00,0.53,1.53,0.3828,2,1,0,0.01,0.00,-0.11,-0.79,0.00,0.00,1.56,135,31
4756,0.0,15.2,-86.3,0.274,-0.220,-0.896,-3.2,0.6,0.0,-0.0006,-0.0199,0.0843,1013,683,1086,763,0.02,0.00,0.52,1.53,0.3855,2,1,0,0.01,0.00,-0.09,-0.77,0.00,0.00,1.54,135,31
4766,-4.7,20.8,94.2,0.070,-0.055,-0.840,-3.1,0.6,0.0,0.0034,-0.0203,-0.1000,585,1062,722,1186,0.02,0.00,0.54,1.53,0.3867,2,1,0,0.01,0.00,-0.04,-0.79,0.00,0.00,1.56,135,31
4777,-0.1,8.0,-0.2,0.040,-0.049,-0.743,-3.1,0.7,0.0,0.0062,-0.0100,0.0120,897,847,971,845,0.02,0.00,0.53,1.52,0.3874,2,1,0,0.01,0.00,0.00,-0.76,0.00,0.00,1.57,135,31
4787,3.4,4.0,-2.0,-0.201,-0.238,-0.566,-2.9,0.9,0.0,-0.0031,-0.0027,-0.0083,826,939,840,931,0.02,0.00,0.55,1.52,0.3844,2,1,0,0.01,0.00,-0.01,-0.77,0.00,0.00,1.59,135,31
4797,11.3,11.1,115.7,-0.132,0.082,-0.712,-2.9,1.0,0.0,-0.0097,-0.0070,-0.1174,707,1089,692,1047,0.02,0.00,0.54,1.52,0.3841,2,1,0,0.01,0.00,-0.01,-0.77,0.00,0.00,1.60,135,31
4807,12.9,15.5,-73.3,-0.153,-0.198,-0.738,-3.1,1.0,0.0,-0.0156,-0.0002,0.0637,1041,749,943,775,0.02,0.00,0.55,1.52,0.3805,2,1,0,0.01,0.00,-0.06,-0.79,0.00,0.00,1.56,135,31
4817,15.5,23.2,151.0,-0.149,0.045,-0.862,-3.0,1.2,0.0,-0.0167,-0.0222,-0.1569,644,1168,553,1161,0.02,0.00,0.56,1.52,0.3828,2,1,0,0.01,0.00,-0.10,-0.81,0.00,0.00,1.52,135,31
4827,13.5,-3.0,-74.1,0.011,-0.033,-0.754,-3.1,0.7,0.0,-0.0155,0.0039,0.0705,1073,713,991,767,0.02,0.00,0.55,1.52,0.3854,2,1,0,0.01,0.00,-0.11,-0.84,0.00,0.00,1.54,135,31
4837,7.4,-4.7,94.9,-0.020,0.094,-0.895,-3.0,0.8,0.0,-0.0086,0.0054,-0.1008,662,1088,652,1142,0.02,0.00,0.57,1.52,0.3855,2,1,0,0.01,0.00,-0.11,-0.86,0.00,0.00,1.56,135,31
4847,4.3,-28.5,11.4,-0.021,0.106,-1.157,-3.2,0.8,-28.9,-0.0057,0.0293,-0.0464,904,958,774,920,0.02,0.00,0.56,1.52,0.3870,2,1,0,0.01,0.00,-0.07,-0.86,0.00,0.00,1.54,135,31
4857,25.7,-28.7,-14.7,0.114,0.098,-1.089,-3.1,1.0,-28.9,-0.0284,0.0292,-0.0257,886,968,712,986,0.02,0.00,0.58,1.52,0.3863,2,1,0,0.01,0.00,-0.03,-0.87,0.00,0.00,1.53,135,31
4867,3.7,-37.5,96.0,-0.065,0.153,-1.155,-3.2,1.0,-36.1,-0.0051,0.0385,-0.1382,728,1163,583,1093,0.02,0.00,0.57,1.52,0.3885,2,1,0,0.01,0.00,0.00,-0.87,0.00,0.00,1.54,135,31
4878,4.1,-10.3,-101.2,0.298,0.076,-1.231,-3.0,0.8,-36.1,-0.0045,-0.0029,0.0511,964,785,993,837,0.02,0.00,0.58,1.51,0.3899,2,1,0,0.01,0.00,0.00,-0.87,0.00,0.00,1.55,135,31
4888,-5.1,-1.8,122.9,0.008,0.258,-1.347,-3.0,0.9,-42.9,0.0040,0.0027,-0.1721,515,1202,635,1248,0.02,0.00,0.59,1.51,0.3927,2,1,0,0.01,0.00,-0.02,-0.87,0.00,0.00,1.53,135,31
4898,3.7,25.6,-83.8,-0.076,-0.014,-1.034,-3.1,1.2,-42.9,-0.0028,-0.0245,0.0422,948,770,1028,852,0.02,0.00,0.58,1.51,0.3925,2,1,0,0.01,0.00,-0.02,-0.86,0.00,0.00,1.52,135,31
4908,-3.8,46.6,89.3,-0.170,0.003,-0.903,-3.2,1.4,-53.5,0.0023,-0.0455,-0.1493,523,1173,607,1287,0.02,0.00,0.59,1.51,0.3914,2,1,0,0.01,0.00,-0.06,-0.88,0.00,0.00,1.51,135,31
4918,-4.7,21.3,-5.8,-0.026,0.025,-0.698,-3.4,1.5,-53.5,0.0031,-0.0200,-0.0541,867,964,835,929,0.02,0.00,0.58,1.51,0.3923,2,1,0,0.01,0.00,-0.02,-0.86,0.00,0.00,1.53,135,31
4928,13.8,-0.7,-13.1,-0.107,0.108,-0.738,-3.5,1.7,-66.9,-0.0187,0.0142,-0.0747,804,1053,656,1046,0.02,0.00,0.60,1.51,0.3873,2,1,0,0.01,0.00,0.02,-0.88,0.00,0.00,1.55,135,31
4938,-9.1,-47.8,77.2,-0.013,0.104,-1.092,-3.7,2.0,-66.9,0.0073,0.0498,-0.1507,764,1243,514,1042,0.02,0.00,0.59,1.50,0.3880,2,1,0,0.01,0.00,0.08,-0.86,0.00,0.00,1.54,135,31
4948,-8.8,-55.9,-106.1,0.530,0.027,-1.049,-3.4,1.6,-85.0,0.0073,0.0576,0.0144,946,989,830,806,0.02,0.00,0.59,1.50,0.3890,2,1,0,0.01,0.00,0.10,-0.85,0.00,0.00,1.53,135,31
4958,-4.3,-8.3,105.0,0.090,0.025,-1.306,-3.4,1.3,-85.0,0.0025,0.0037,-0.1956,517,1254,554,1277,0.02,0.00,0.60,1.50,0.3929,2,1,0,0.01,0.00,0.05,-0.88,0.00,0.00,1.54,135,31
4968,-6.2,55.3,-105.4,-0.214,-0.469,-0.793,-3.4,1.6,-96.5,0.0032,-0.0541,0.0035,835,781,977,971,0.02,0.00,0.59,1.50,0.3881,2,1,0,0.01,0.00,0.00,-0.90,0.00,0.00,1.56,135,31
4978,0.9,36.9,84.6,-0.304,-0.035,-0.537,-3.4,2.1,-96.5,-0.0060,-0.0188,-0.1984,498,1236,489,1291,0.02,0.00,0.60,1.50,0.3814,2,1,0,0.01,0.00,0.01,-0.92,0.00,0.00,1.55,136,31
4989,12.3,-46.1,-62.6,0.355,0.360,-1.263,-3.7,1.9,-104.0,-0.0143,0.0481,-0.0483,946,987,688,910,0.02,0.00,0.58,1.50,0.3837,2,1,0,0.01,0.00,0.10,-0.92,0.00,0.00,1.54,136,31
4999,-2.3,-51.4,-14.7,0.450,0.361,-1.072,-3.2,2.0,-104.0,0.0011,0.0398,-0.1135,695,1170,596,1064,0.02,0.00,0.59,1.50,0.3829,2,1,0,0.01,0.00,0.07,-0.92,0.00,0.00,1.53,136,31
5009,-3.1,2.9,43.5,-0.125,0.044,-0.930,-3.2,2.2,-109.2,0.0016,-0.0009,-0.1600,616,1152,636,1141,0.02,0.00,0.58,1.50,0.3855,2,1,0,0.01,0.00,0.03,-0.90,0.00,0.00,1.52,136,31
5019,-9.9,31.8,-113.8,-0.122,-0.386,-0.873,-3.3,2.2,-109.2,0.0063,-0.0289,-0.0070,798,888,869,973,0.02,0.00,0.58,1.50,0.3833,2,1,0,0.01,0.00,0.03,-0.88,0.00,0.00,1.52,136,31
5029,14.6,-9.6,92.6,0.027,0.170,-1.362,-3.3,2.2,-109.9,-0.0167,0.0102,-0.2100,521,1256,470,1306,0.02,0.00,0.58,1.50,0.3866,2,1,0,0.01,0.00,0.05,-0.85,0.00,0.00,1.53,136,31
5039,-6.7,1.0,-144.7,0.387,-0.137,-0.621,-3.3,2.2,-109.9,0.0052,0.0011,0.0273,936,815,952,833,0.02,0.00,0.57,1.50,0.3844,2,1,0,0.01,0.00,0.05,-0.86,0.00,0.00,1.51,136,31
5049,4.2,5.0,76.0,-0.265,0.351,-0.573,-3.1,2.6,-111.7,-0.0019,0.0032,-0.2001,508,1274,481,1240,0.02,0.00,0.58,1.49,0.3799,2,1,0,0.01,0.00,0.09,-0.86,0.00,0.00,1.50,136,31
5059,12.2,-11.5,-78.6,-0.036,-0.145,-1.552,-3.3,2.9,-111.7,-0.0138,0.0143,-0.0407,933,962,742,918,0.02,0.00,0.56,1.49,0.3869,2,1,0,0.01,0.00,0.10,-0.86,0.00,0.00,1.51,137,31
5069,0.1,-12.4,-29.7,0.171,0.247,-1.171,-2.7,2.6,-115.8,0.0118,0.0065,-0.1130,614,1161,686,1091,0.02,0.00,0.57,1.49,0.3865,2,1,0,0.01,0.00,0.05,-0.88,0.00,0.00,1.51,137,31
5080,1.7,12.3,12.1,0.019,0.052,-0.540,-3.0,2.5,-115.8,-0.0029,-0.0098,-0.1358,671,1053,700,1099,0.02,0.00,0.55,1.49,0.3827,2,1,0,0.01,0.00,0.06,-0.84,0.00,0.00,1.52,137,31
5090,-23.7,-8.6,-125.9,0.242,-0.017,-1.439,-2.9,2.7,-118.9,0.0226,0.0114,-0.0009,831,968,891,861,0.02,0.00,0.55,1.49,0.3864,2,1,0,0.01,0.00,0.09,-0.86,0.00,0.00,1.53,137,31
5100,20.8,-29.1,80.4,-0.013,0.341,-1.603,-3.2,2.9,-118.9,-0.0203,0.0336,-0.2013,622,1297,439,1239,0.02,-0.01,0.55,1.49,0.3924,2,1,0,0.01,0.00,0.09,-0.85,0.00,0.00,1.52,137,31
5110,0.3,1.4,-136.7,0.045,-0.120,-0.281,-3.0,2.6,-118.9,-0.0016,0.0011,0.0096,889,864,892,855,0.02,0.00,0.53,1.49,0.3796,2,1,0,0.01,0.00,0.09,-0.87,0.00,0.00,1.51,138,31
5120,-1.7,-0.6,43.6,-0.048,0.093,-0.939,-2.9,2.6,-118.9,0.0035,0.0006,-0.1737,479,1231,571,1208,0.02,0.00,0.54,1.49,0.3781,2,1,0,0.01,0.00,0.10,-0.85,0.00,0.00,1.52,138,31
5130,2.4,-7.4,-112.0,0.193,-0.176,-1.648,-3.3,2.6,-118.9,-0.0013,0.0086,-0.0090,905,901,880,879,0.02,0.00,0.52,1.49,0.3882,2,1,0,0.01,0.00,0.14,-0.85,0.00,0.00,1.53,138,31
5140,7.4,17.4,-22.4,-0.028,-0.006,-0.687,-3.0,2.6,-118.9,-0.0087,-0.0148,-0.1048,625,1068,714,1131,0.02,0.00,0.52,1.49,0.3845,2,1,0,0.01,0.00,0.15,-0.82,0.00,0.00,1.52,139,31
5150,-9.7,10.0,3.2,0.012,-0.004,-0.301,-3.5,2.6,-119.2,0.0069,-0.0081,-0.1122,664,1051,701,1064,0.02,0.00,0.50,1.49,0.3770,2,1,0,0.01,0.00,0.15,-0.82,0.00,0.00,1.52,139,31
5160,-24.1,-7.2,-103.9,0.067,-0.028,-1.479,-3.3,2.8,-119.2,0.0225,0.0100,-0.0238,782,1033,812,885,0.02,0.00,0.50,1.49,0.3812,2,1,0,0.01,0.00,0.15,-0.82,0.00,0.00,1.51,139,31
5170,-8.3,-14.3,31.6,0.157,0.018,-1.228,-3.3,3.0,-118.9,0.0064,0.0200,-0.1584,652,1249,548,1131,0.02,-0.01,0.49,1.48,0.3900,2,1,0,0.01,0.00,0.14,-0.83,0.00,0.00,1.50,140,31
5180,-6.9,-14.0,-174.9,0.031,-0.255,-0.077,-3.3,2.6,-118.9,0.0030,0.0138,0.0471,982,800,943,782,0.02,-0.01,0.48,1.48,0.3805,2,1,0,0.01,0.00,0.19,-0.86,0.00,0.00,1.51,141,31
5191,0.9,5.3,43.6,-0.229,-0.031,-1.028,-3.2,2.8,-115.2,-0.0024,-0.0025,-0.1675,568,1163,563,1226,0.02,-0.01,0.48,1.48,0.3822,2,1,0,0.01,0.00,0.20,-0.87,0.00,0.00,1.50,141,31
5201,-17.6,51.3,-122.6,0.041,-0.149,-1.478,-3.4,2.6,-111.7,0.0072,-0.0437,0.0099,816,806,1009,945,0.02,0.00,0.46,1.48,0.3897,2,1,0,0.01,0.00,0.16,-0.86,0.00,0.00,1.48,141,31
5211,6.7,12.3,7.6,-0.133,0.271,-0.695,-3.4,2.8,-111.7,-0.0112,-0.0081,-0.1408,612,1138,586,1206,0.02,0.00,0.46,1.48,0.3851,2,1,0,0.01,0.00,0.14,-0.85,0.00,0.00,1.47,141,31
5221,4.2,-38.1,-48.8,-0.099,0.160,-0.465,-3.6,2.9,-103.3,-0.0211,0.0511,-0.0531,917,1037,643,924,0.02,-0.01,0.44,1.48,0.3824,2,1,0,0.01,0.00,0.22,-0.82,0.00,0.00,1.45,141,31
5231,-2.9,-31.6,-118.4,0.385,0.127,-1.240,-3.2,2.6,-103.3,0.0028,0.0335,0.0016,922,974,829,838,0.02,-0.01,0.44,1.48,0.3877,2,1,0,0.01,0.00,0.26,-0.84,0.00,0.00,1.47,141,31
5241,16.9,-6.6,38.1,-0.069,0.264,-1.488,-3.3,2.0,-86.2,-0.0185,0.0088,-0.1334,691,1092,678,1160,0.02,0.00,0.43,1.47,0.3956,2,1,0,0.01,0.00,0.27,-0.79,0.00,0.00,1.48,142,31
5251,-8.9,43.9,-153.9,-0.042,-0.389,-0.904,-3.5,1.8,-86.2,0.0071,-0.0422,0.0586,923,706,1074,890,0.02,0.00,0.42,1.47,0.3919,2,1,0,0.01,0.00,0.24,-0.79,0.00,0.00,1.49,142,31
5261,-10.7,43.6,61.5,-0.113,-0.002,-0.399,-3.4,1.8,-62.6,0.0038,-0.0367,-0.1365,573,1092,686,1205,0.02,0.00,0.41,1.47,0.3869,2,1,0,0.01,0.00,0.23,-0.77,0.00,0.00,1.49,142,31
5271,4.1,-21.1,-137.7,0.192,0.134,-0.778,-3.7,1.5,-62.6,-0.0106,0.0238,0.0683,1105,762,942,739,0.02,0.00,0.39,1.47,0.3860,2,1,0,0.01,0.00,0.29,-0.74,0.00,0.00,1.48,142,31
5282,3.7,-38.9,-10.5,0.138,0.190,-1.120,-3.4,1.5,-33.6,-0.0054,0.0406,-0.0322,886,1027,692,946,0.02,0.00,0.40,1.47,0.3862,2,1,0,0.01,0.00,0.31,-0.74,0.00,0.00,1.48,142,31
5292,1.8,-44.4,-43.4,0.234,0.011,-1.259,-3.3,0.6,-33.6,-0.0080,0.0237,0.0150,990,903,870,843,0.02,0.00,0.38,1.47,0.3935,2,1,0,0.01,0.00,0.29,-0.73,0.00,0.00,1.48,142,31
5302,0.2,21.5,-112.0,0.193,0.029,-1.207,-2.8,0.2,-10.6,-0.0013,-0.0213,0.0923,941,681,1147,821,0.02,0.00,0.38,1.46,0.3915,2,1,0,0.01,0.00,0.25,-0.74,0.00,0.00,1.47,142,31
5312,-5.3,54.2,59.3,-0.226,0.105,-1.304,-2.9,0.3,-10.6,0.0053,-0.0562,-0.0755,669,925,902,1103,0.02,0.00,0.37,1.46,0.3926,2,1,0,0.01,0.00,0.21,-0.74,0.00,0.00,1.47,143,31
5322,10.2,53.3,-147.1,0.154,-0.155,-1.001,-2.8,0.0,0.0,-0.0114,-0.0535,0.1381,1079,561,1227,738,0.02,0.00,0.36,1.46,0.3935,2,1,0,0.01,0.00,0.30,-0.75,0.00,0.00,1.46,143,31
5332,12.8,39.7,76.7,-0.069,0.287,-1.194,-2.8,-0.2,0.0,-0.0098,-0.0415,-0.0906,658,989,781,1156,0.02,0.00,0.36,1.46,0.3907,2,1,0,0.01,0.00,0.33,-0.76,0.00,0.00,1.45,143,31
5342,21.4,17.5,-120.7,-0.039,0.071,-1.218,-3.0,-0.8,0.0,-0.0227,-0.0184,0.1118,1101,551,1185,785,0.02,0.00,0.35,1.46,0.3957,2,1,0,0.01,0.00,0.35,-0.75,0.00,0.00,1.44,143,31
5352,13.0,5.9,16.0,0.065,0.174,-0.891,-2.7,-0.8,0.0,-0.0138,-0.0182,-0.0379,791,918,837,1060,0.02,0.00,0.35,1.45,0.3935,2,1,0,0.01,0.00,0.33,-0.75,0.00,0.00,1.46,143,31
5362,-1.1,-10.7,-19.9,-0.129,0.078,-0.912,-2.9,-1.0,0.0,-0.0016,0.0075,0.0170,981,793,968,857,0.02,0.00,0.34,1.45,0.3926,2,1,0,0.01,0.00,0.31,-0.73,0.00,0.00,1.48,143,31
5373,7.8,-7.5,-86.9,-0.096,-0.024,-0.901,-2.7,-1.1,0.0,-0.0116,0.0028,0.0657,1028,762,986,822,0.02,0.00,0.34,1.45,0.3926,2,1,0,0.01,0.00,0.29,-0.73,0.00,0.00,1.48,143,31
5383,8.8,-10.5,82.2,-0.010,0.107,-0.686,-2.7,-1.2,0.0,-0.0094,0.0119,-0.0876,807,1053,720,1009,0.02,0.00,0.34,1.45,0.3912,2,1,0,0.01,0.00,0.27,-0.71,0.00,0.00,1.47,143,31
5393,6.0,4.2,-132.8,-0.007,-0.052,-1.170,-2.6,-1.5,0.0,-0.0070,-0.0059,0.1240,1143,677,1118,671,0.02,0.00,0.33,1.45,0.3939,2,1,0,0.01,0.00,0.25,-0.69,0.00,0.00,1.45,143,31
5403,4.8,13.7,97.2,-0.063,0.135,-1.226,-2.7,-1.6,0.0,-0.0066,-0.0119,-0.1076,712,1101,670,1130,0.01,0.00,0.33,1.45,0.3946,2,1,0,0.01,0.00,0.22,-0.69,0.00,0.00,1.45,143,31
5413,18.5,17.3,-98.9,0.165,-0.004,-1.260,-2.9,-2.1,0.0,-0.0197,-0.0196,0.0902,1145,663,1071,744,0.02,0.00,0.32,1.45,0.3957,2,1,0,0.01,0.00,0.22,-0.68,0.00,0.00,1.45,143,31
5423,8.2,25.4,25.6,0.087,0.161,-1.264,-2.7,-2.2,0.0,-0.0095,-0.0180,-0.0473,795,971,802,1046,0.02,0.00,0.33,1.44,0.3947,2,1,0,0.01,0.00,0.21,-0.68,0.00,0.00,1.43,143,31
5433,-5.8,18.7,12.5,0.124,-0.085,-0.767,-3.0,-2.7,0.0,0.0045,-0.0216,-0.0213,937,825,927,915,0.02,0.01,0.32,1.44,0.3934,2,1,0,0.01,0.00,0.21,-0.67,0.00,0.00,1.42,143,31
5443,4.5,26.1,-73.0,0.186,-0.060,-0.876,-2.9,-2.9,0.0,-0.0057,-0.0292,0.0642,966,741,1007,892,0.02,0.01,0.32,1.44,0.3935,2,1,0,0.01,0.00,0.22,-0.68,0.00,0.00,1.41,143,31
5453,-6.1,10.1,99.2,0.058,0.099,-1.003,-2.8,-3.2,0.0,0.0053,-0.0151,-0.1060,689,1061,771,1112,0.02,0.01,0.32,1.44,0.3973,2,1,0,0.01,0.00,0.24,-0.65,0.00,0.00,1.41,143,31
5463,-11.3,4.4,-128.4,0.173,-0.290,-0.552,-2.8,-3.5,0.0,0.0102,-0.0081,0.1197,1078,669,1177,726,0.01,0.01,0.31,1.43,0.3994,2,1,0,0.01,0.00,0.27,-0.67,0.00,0.00,1.42,143,31
5474,-2.6,-9.7,100.0,0.006,0.136,-0.935,-2.8,-3.5,0.0,0.0005,-0.0036,-0.1163,663,1120,702,1156,0.02,0.01,0.32,1.43,0.3982,2,1,0,0.01,0.00,0.28,-0.66,0.00,0.00,1.43,143,31
5484,-5.3,-26.6,-91.9,0.028,-0.086,-1.317,-2.7,-3.6,0.0,0.0043,0.0230,0.0832,1114,774,1089,703,0.02,0.01,0.31,1.43,0.4035,2,1,0,0.01,0.00,0.32,-0.66,0.00,0.00,1.43,144,31
5494,-15.1,-25.3,15.6,-0.029,-0.121,-0.732,-2.5,-3.5,0.0,0.0116,0.0181,-0.0391,824,1046,809,959,0.01,0.01,0.32,1.43,0.3977,2,1,0,0.01,0.00,0.32,-0.66,0.00,0.00,1.43,144,31
5504,-11.5,-17.8,19.4,-0.145,-0.053,-0.710,-2.5,-3.4,0.0,0.0106,0.0143,-0.0281,926,979,877,851,0.01,0.01,0.31,1.43,0.3972,2,1,0,0.01,0.00,0.34,-0.63,0.00,0.00,1.42,144,31
5514,-5.9,-7.1,-86.9,-0.031,-0.123,-1.077,-2.2,-3.3,0.0,0.0103,0.0132,0.0676,1036,859,1015,745,0.01,0.01,0.31,1.42,0.4000,2,1,0,0.01,0.00,0.35,-0.62,0.00,0.00,1.42,144,31
5524,-10.5,4.1,110.6,-0.054,-0.166,-0.859,-2.3,-3.3,0.0,0.0099,-0.0077,-0.1193,723,1134,728,1072,0.01,0.01,0.31,1.42,0.4003,2,1,0,0.01,0.00,0.34,-0.58,0.00,0.00,1.42,144,31
5534,8.2,19.5,-115.3,0.048,-0.237,-0.832,-2.2,-3.5,0.0,-0.0081,-0.0222,0.1070,1100,686,1140,740,0.01,0.01,0.30,1.42,0.4016,2,1,0,0.01,0.00,0.34,-0.56,0.00,0.00,1.41,144,31
5544,-0.8,18.2,109.0,-0.076,0.029,-1.339,-2.2,-3.4,0.0,0.0018,-0.0208,-0.1194,642,1141,726,1159,0.01,0.01,0.31,1.42,0.4017,2,1,0,0.01,0.00,0.32,-0.55,0.00,0.00,1.39,144,31
5554,-7.7,4.8,-64.6,0.105,-0.009,-1.184,-2.3,-3.7,0.0,0.0025,-0.0167,0.0671,1023,743,1098,822,0.01,0.01,0.30,1.42,0.4041,2,1,0,0.01,0.00,0.33,-0.53,0.00,0.00,1.37,144,31
5565,2.3,14.8,14.4,0.010,0.077,-0.767,-2.2,-3.6,0.0,-0.0067,-0.0220,-0.0342,784,955,842,1085,0.01,0.01,0.31,1.41,0.4015,2,1,0,0.01,0.00,0.34,-0.55,0.00,0.00,1.39,144,31
5575,0.4,-12.3,34.9,0.014,0.290,-0.963,-2.0,-3.5,0.0,-0.0008,0.0086,-0.0435,868,980,885,948,0.01,0.01,0.30,1.41,0.4035,2,1,0,0.01,0.00,0.36,-0.57,0.00,0.00,1.41,144,31
5585,-3.1,-4.2,-79.4,-0.080,0.107,-1.085,-1.8,-3.5,0.0,0.0040,0.0005,0.0669,999,826,1028,830,0.01,0.01,0.31,1.41,0.4038,2,1,0,0.01,0.00,0.36,-0.58,0.00,0.00,1.41,144,31
5595,10.9,-10.1,105.3,0.020,0.262,-1.024,-1.8,-3.2,0.0,-0.0111,0.0067,-0.1140,768,1134,663,1108,0.01,0.01,0.31,1.41,0.4026,2,1,0,0.01,0.00,0.40,-0.60,0.00,0.00,1.41,144,31
5605,13.3,14.8,-110.5,0.190,0.059,-1.267,-1.5,-3.3,0.0,-0.0096,-0.0063,0.1007,1124,726,1096,744,0.01,0.01,0.30,1.40,0.4047,2,1,0,0.01,0.00,0.45,-0.60,0.00,0.00,1.39,143,31
5615,-2.4,23.2,95.2,0.093,0.215,-1.376,-1.5,-3.3,0.0,0.0026,-0.0269,-0.1039,687,1123,707,1161,0.01,0.01,0.31,1.40,0.4031,2,1,0,0.01,0.00,0.48,-0.60,0.00,0.00,1.38,142,31
5625,6.9,20.2,-67.2,0.231,0.079,-1.092,-1.5,-3.7,0.0,-0.0067,-0.0241,0.0586,1031,706,1086,855,0.01,0.01,0.30,1.40,0.4031,2,1,0,0.01,0.00,0.50,-0.60,0.00,0.00,1.38,142,31
5635,-5.1,-0.6,16.3,0.112,0.033,-1.046,-1.1,-3.5,0.0,0.0065,-0.0115,-0.0376,785,986,869,1019,0.01,0.01,0.31,1.40,0.4006,2,1,0,0.01,0.00,0.47,-0.61,0.00,0.00,1.38,142,31
5645,-12.6,-29.7,46.4,-0.126,0.009,-0.996,-1.0,-3.4,0.0,0.0133,0.0262,-0.0550,871,1019,857,932,0.01,0.01,0.31,1.40,0.4032,2,1,0,0.01,0.00,0.45,-0.60,0.00,0.00,1.38,142,31
5655,2.1,-24.5,-69.3,-0.059,-0.131,-0.825,-0.6,-3.1,0.0,0.0012,0.0235,0.0517,1036,880,968,781,0.01,0.01,0.31,1.39,0.4015,2,1,0,0.01,0.00,0.43,-0.60,0.00,0.00,1.37,142,31
5666,-3.1,-4.7,125.0,-0.128,-0.004,-0.825,-0.4,-2.9,0.0,0.0043,0.0015,-0.1337,697,1199,674,1109,0.01,0.01,0.31,1.39,0.4032,2,1,0,0.01,0.00,0.41,-0.60,0.00,0.00,1.38,142,31
5676,-0.3,18.3,-97.4,-0.015,-0.302,-0.757,-0.3,-3.2,0.0,0.0013,-0.0203,0.0884,1068,739,1107,779,0.01,0.01,0.31,1.39,0.4051,2,1,0,0.01,0.00,0.43,-0.61,0.00,0.00,1.39,141,31
5686,-2.3,21.4,110.5,0.037,-0.057,-0.993,-0.2,-3.1,0.0,0.0037,-0.0249,-0.1193,604,1122,719,1228,0.01,0.01,0.32,1.39,0.4025,2,1,0,0.01,0.00,0.45,-0.61,0.00,0.00,1.37,141,31
5696,7.4,-4.9,-51.4,-0.024,0.007,-1.165,-0.2,-3.2,0.0,-0.0070,-0.0105,0.0530,1013,767,1057,857,0.01,0.01,0.31,1.39,0.4052,2,1,0,0.01,0.00,0.47,-0.59,0.00,0.00,1.35,141,31
5706,7.7,-30.5,10.0,-0.134,0.000,-0.946,-0.1,-2.9,0.0,-0.0062,0.0275,-0.0188,836,1010,807,1031,0.01,0.00,0.32,1.38,0.4040,2,1,0,0.01,0.00,0.45,-0.59,0.00,0.00,1.35,141,31
5716,-5.3,-30.8,37.9,0.013,0.039,-1.254,-0.2,-2.7,0.0,0.0068,0.0280,-0.0466,912,1023,832,932,0.01,0.00,0.31,1.38,0.4060,2,1,0,0.01,0.00,0.44,-0.58,0.00,0.00,1.36,140,31
5726,-7.3,-16.2,-77.1,0.059,-0.223,-1.186,-0.2,-2.6,0.0,-0.0013,0.0206,0.0547,1066,864,950,813,0.01,0.00,0.32,1.38,0.4049,2,1,0,0.01,0.00,0.41,-0.57,0.00,0.00,1.37,140,31
5736,-1.9,-6.8,107.4,0.003,0.020,-0.779,-0.1,-2.3,0.0,0.0034,0.0043,-0.1161,768,1168,689,1055,0.01,0.00,0.32,1.38,0.4034,2,1,0,0.01,0.00,0.38,-0.56,0.00,0.00,1.38,140,31
5746,-5.9,-4.4,-104.8,0.083,0.039,-0.875,-0.1,-2.4,0.0,0.0140,0.0106,0.0979,1104,797,1107,676,0.01,0.00,0.32,1.37,0.4039,2,1,0,0.01,0.00,0.38,-0.57,0.00,0.00,1.37,139,31
5757,-15.3,6.4,107.8,0.056,0.027,-1.171,-0.1,-2.4,0.0,0.0168,-0.0091,-0.1165,651,1173,722,1146,0.01,0.00,0.33,1.37,0.4049,2,1,0,0.01,0.00,0.37,-0.56,0.00,0.00,1.36,139,31
5767,2.7,11.9,-52.2,0.048,0.000,-0.904,-0.4,-2.3,0.0,-0.0015,-0.0145,0.0434,1039,795,1030,824,0.01,0.00,0.32,1.37,0.4045,2,1,0,0.01,0.00,0.39,-0.53,0.00,0.00,1.36,139,31
5777,0.9,24.4,36.3,0.131,-0.062,-1.311,-0.1,-2.2,0.0,0.0033,-0.0226,-0.0555,745,1053,807,1064,0.01,0.00,0.33,1.37,0.4020,2,1,0,0.01,0.00,0.37,-0.52,0.00,0.00,1.36,139,31
5787,5.9,26.4,44.6,0.085,0.087,-1.334,-0.2,-2.5,0.0,-0.0030,-0.0328,-0.0496,782,919,940,1052,0.01,0.00,0.32,1.37,0.4051,2,1,0,0.01,0.00,0.39,-0.50,0.00,0.00,1.37,139,31
5797,7.8,30.8,-66.8,0.105,0.198,-1.052,0.0,-2.5,0.0,0.0052,-0.0429,0.0427,867,796,1082,915,0.01,0.00,0.33,1.37,0.4007,2,1,0,0.01,0.00,0.41,-0.47,0.00,0.00,1.37,138,31
5807,1.4,-9.3,93.8,0.003,0.135,-1.307,-0.1,-2.2,0.0,0.0000,0.0069,-0.1026,735,1075,729,1119,0.01,0.00,0.33,1.36,0.4005,2,1,0,0.01,0.00,0.43,-0.48,0.00,0.00,1.36,139,31
5817,6.1,-14.6,-106.2,0.114,-0.079,-1.091,-0.1,-2.2,0.0,-0.0177,0.0030,0.0954,1125,688,1056,788,0.01,0.00,0.33,1.36,0.4003,2,1,0,0.01,0.00,0.46,-0.50,0.00,0.00,1.35,139,31
5827,-14.0,-6.1,103.1,-0.120,-0.032,-0.877,0.1,-1.9,0.0,0.0159,0.0040,-0.1119,699,1150,680,1090,0.00,0.00,0.34,1.36,0.3953,2,1,0,0.01,0.00,0.47,-0.52,0.00,0.00,1.35,139,31
5837,-20.8,-14.5,-74.9,0.104,-0.252,-0.929,0.2,-2.0,0.0,0.0233,0.0110,0.0705,1049,796,1095,708,0.00,0.00,0.33,1.36,0.3992,2,1,0,0.01,0.00,0.48,-0.52,0.00,0.00,1.35,139,31
5847,-2.0,-9.5,46.5,-0.064,-0.094,-0.713,0.4,-1.8,0.0,0.0043,0.0058,-0.0588,761,1052,788,1040,0.00,0.00,0.34,1.36,0.3981,2,1,0,0.01,0.00,0.49,-0.52,0.00,0.00,1.33,139,31
5858,-0.4,-20.3,27.7,-0.108,-0.003,-0.726,0.5,-1.5,0.0,0.0027,0.0187,-0.0366,933,1004,862,856,0.00,0.00,0.33,1.36,0.4001,2,1,0,0.01,0.00,0.52,-0.52,0.00,0.00,1.35,139,31
5868,4.5,14.1,-35.9,-0.010,-0.194,-0.881,0.5,-1.5,-13.7,-0.0052,-0.0068,0.0013,912,912,890,935,0.00,0.00,0.34,1.35,0.3993,2,1,0,0.01,0.00,0.51,-0.51,0.00,0.00,1.36,138,31
5878,-0.9,26.7,116.5,0.061,0.020,-0.895,0.5,-1.6,-13.7,0.0029,-0.0290,-0.1364,612,1113,726,1205,0.00,0.00,0.34,1.35,0.4002,2,1,0,0.01,0.00,0.49,-0.50,0.00,0.00,1.35,137,31
5888,3.7,15.3,-95.3,0.037,-0.007,-0.615,0.5,-1.8,-26.1,-0.0015,-0.0173,0.0602,959,748,1062,867,0.00,0.00,0.34,1.35,0.3975,2,1,0,0.01,0.00,0.49,-0.50,0.00,0.00,1.35,137,31
5898,7.4,-4.5,123.5,-0.081,0.306,-1.043,0.5,-1.4,-26.1,-0.0053,-0.0002,-0.1616,600,1202,598,1230,0.00,0.00,0.35,1.35,0.3967,2,1,0,0.01,0.00,0.48,-0.49,0.00,0.00,1.33,137,31
5908,-2.9,1.6,-86.8,0.299,-0.199,-0.735,0.5,-1.3,-41.1,0.0052,-0.0031,0.0367,990,825,1001,826,0.00,0.00,0.34,1.35,0.3984,2,1,0,0.01,0.00,0.48,-0.48,0.00,0.00,1.33,137,31
5918,-17.9,27.0,47.5,0.112,-0.154,-0.665,0.6,-1.1,-41.1,0.0190,-0.0297,-0.1033,599,1112,741,1170,0.00,0.00,0.35,1.35,0.3958,2,1,0,0.01,0.00,0.47,-0.49,0.00,0.00,1.36,137,31
5928,2.6,-6.9,-2.1,-0.042,0.070,-0.938,0.4,-0.8,-54.5,-0.0005,0.0059,-0.0614,847,1004,828,958,0.00,0.00,0.34,1.35,0.3977,2,1,0,0.01,0.00,0.49,-0.48,0.00,0.00,1.35,137,31
5938,14.1,-0.8,-45.5,0.011,-0.308,-0.830,0.4,-0.8,-54.5,-0.0120,-0.0008,-0.0218,845,952,828,992,0.00,0.00,0.35,1.35,0.3951,2,1,0,0.01,0.00,0.49,-0.49,0.00,0.00,1.35,137,31
5948,10.8,41.5,106.2,-0.014,-0.003,-0.685,0.0,-0.9,-63.8,-0.0038,-0.0485,-0.1692,497,1121,665,1319,0.01,0.00,0.35,1.35,0.3932,2,1,0,0.01,0.00,0.47,-0.50,0.00,0.00,1.34,137,31
5959,21.8,42.4,-125.8,-0.174,0.147,-0.774,0.0,-0.6,-63.8,-0.0203,-0.0434,0.0527,928,708,1053,905,0.01,0.00,0.34,1.35,0.3919,2,1,0,0.01,0.00,0.44,-0.50,0.00,0.00,1.33,136,31
5969,5.1,18.5,107.0,0.004,0.198,-0.922,-0.2,0.0,-71.9,-0.0036,-0.0169,-0.1878,545,1229,553,1262,0.01,0.00,0.35,1.34,0.3914,2,1,0,0.01,0.00,0.46,-0.50,0.00,0.00,1.35,136,31
5979,-10.4,-7.1,-117.7,0.181,-0.082,-0.862,-0.3,0.2,-71.9,0.0108,0.0099,0.0399,996,850,962,761,0.01,0.00,0.33,1.34,0.3886,2,1,0,0.01,0.00,0.50,-0.48,0.00,0.00,1.37,136,31
5989,-3.7,-11.4,33.7,-0.197,0.144,-1.258,-0.2,0.6,-77.8,0.0058,0.0272,-0.1367,673,1252,563,1094,0.01,0.00,0.35,1.34,0.3904,2,1,0,0.01,0.00,0.53,-0.49,0.00,0.00,1.35,136,31
5999,12.1,-24.6,-14.5,-0.155,-0.089,-1.665,-0.6,0.8,-77.8,-0.0140,0.0318,-0.0667,952,1040,679,927,0.01,0.00,0.33,1.34,0.3927,2,1,0,0.01,0.00,0.55,-0.49,0.00,0.00,1.32,136,31
6009,4.3,-30.7,-75.2,0.228,0.005,-1.138,-0.4,0.5,-82.5,-0.0031,0.0312,-0.0169,863,1031,778,941,0.01,0.00,0.34,1.34,0.3945,2,1,0,0.01,0.00,0.52,-0.48,0.00,0.00,1.33,136,31
6019,24.7,-37.4,73.9,0.067,0.324,-1.214,-0.6,0.2,-82.5,-0.0239,0.0377,-0.1661,640,1208,571,1210,0.01,0.00,0.33,1.34,0.3966,2,1,0,0.01,0.00,0.48,-0.49,0.00,0.00,1.33,136,31
6029,-12.0,5.4,-139.3,0.106,-0.342,-0.193,-0.7,0.1,-87.8,0.0130,-0.0053,0.0417,931,777,1013,852,0.01,0.00,0.32,1.34,0.3891,2,1,0,0.01,0.00,0.47,-0.47,0.00,0.00,1.34,136,31
6039,-12.2,10.2,96.2,-0.094,0.069,-0.453,-0.4,0.3,-87.8,0.0181,-0.0125,-0.1925,443,1257,632,1217,0.01,0.00,0.33,1.34,0.3861,2,1,0,0.01,0.00,0.47,-0.45,0.00,0.00,1.34,136,31
6050,7.8,12.1,-91.0,0.066,-0.029,-1.012,-0.6,0.3,-92.4,-0.0068,-0.0120,-0.0112,887,847,903,903,0.01,0.00,0.31,1.34,0.3848,2,1,0,0.01,0.00,0.48,-0.46,0.00,0.00,1.33,136,31
