t_ms,gx,gy,gz,ax,ay,az,sp_x,sp_y,sp_z,pid_x,pid_y,pid_z,m1,m2,m3,m4,roll,pitch,yaw,alt_m,thr,mode,armed,sat,sp_roll,sp_pitch,v_fwd,v_right,vt_fwd,vt_right,range_m,flow_q,est_flags
#
# chuyen bay moi, moc boot_ms = 2419381
#   nhip Hz = 100
10,0.2,0.6,61.9,-0.015,0.085,-1.054,4.1,-4.1,0.0,0.0040,-0.0042,-0.0440,158,306,187,302,0.00,0.01,2.60,0.17,0.0000,1,1,1,0.01,0.00,-0.01,0.00,0.00,0.00,0.16,209,31
20,0.0,-2.1,-68.1,0.052,-0.055,-0.983,4.1,-4.2,0.0,0.0042,-0.0026,0.0575,369,163,396,158,0.00,0.01,2.60,0.17,0.0000,1,1,1,0.01,0.00,-0.01,0.00,0.00,0.00,0.17,209,31
30,-0.2,3.6,4.7,0.035,-0.040,-0.999,4.1,-4.3,0.0,0.0044,-0.0079,-0.0038,158,259,211,280,0.00,0.01,2.60,0.17,0.0000,1,1,1,0.01,0.00,-0.01,0.00,0.00,0.00,0.17,209,31
40,0.4,0.5,63.3,-0.009,0.094,-1.059,4.1,-4.1,0.0,0.0035,-0.0041,-0.0454,158,310,184,308,0.00,0.01,2.60,0.17,0.0000,1,1,1,0.01,0.00,-0.01,0.00,0.00,0.00,0.19,209,31
50,0.4,-1.4,-66.8,0.054,-0.068,-0.973,4.1,-4.2,0.0,0.0037,-0.0029,0.0546,364,159,390,158,0.00,0.01,2.60,0.17,0.0000,1,1,1,0.01,0.00,-0.01,0.00,0.00,0.00,0.17,208,31
60,0.0,3.9,-0.4,0.036,-0.038,-0.997,4.1,-4.3,0.0,0.0043,-0.0086,-0.0027,158,256,214,276,0.00,0.01,2.60,0.17,0.0000,1,1,1,0.01,0.00,-0.01,0.00,0.00,0.00,0.16,208,31
70,0.2,0.4,63.0,-0.014,0.089,-1.066,4.1,-4.1,0.0,0.0038,-0.0040,-0.0453,158,329,187,328,0.00,0.01,2.60,0.17,0.0000,1,1,1,0.01,0.00,-0.01,0.00,0.00,0.00,0.18,208,31
80,0.3,-2.8,-65.0,0.052,-0.066,-0.986,4.1,-4.2,0.0,0.0036,-0.0017,0.0547,369,162,391,158,0.00,0.01,2.60,0.17,0.0000,1,1,1,0.01,0.00,-0.01,0.00,0.00,0.00,0.19,208,31
90,-0.1,3.5,-2.1,0.034,-0.041,-0.991,4.1,-4.3,0.0,0.0043,-0.0082,-0.0014,158,250,214,272,0.00,0.01,2.60,0.17,0.0000,1,1,1,0.01,0.00,-0.01,0.00,0.00,0.00,0.19,208,31
100,0.5,0.5,63.7,-0.015,0.094,-1.072,4.1,-4.2,0.0,0.0036,-0.0043,-0.0459,158,330,187,331,0.00,0.01,2.60,0.18,0.0000,1,1,1,0.01,0.00,-0.01,0.00,0.00,0.00,0.18,209,31
110,0.8,-2.2,-64.3,0.054,-0.045,-0.983,4.1,-4.2,0.0,0.0033,-0.0020,0.0514,367,160,390,158,0.00,0.01,2.60,0.18,0.0000,1,1,1,0.01,0.00,-0.01,0.00,0.00,0.00,0.17,209,31
120,-0.3,4.2,1.0,0.037,-0.056,-0.987,4.1,-4.3,0.0,0.0045,-0.0085,-0.0008,158,226,212,245,0.00,0.01,2.60,0.18,0.0000,1,1,1,0.01,0.00,-0.01,0.00,0.00,0.00,0.17,209,31
130,0.0,1.2,65.0,-0.013,0.090,-1.065,4.1,-4.2,0.0,0.0040,-0.0048,-0.0471,158,336,189,338,0.00,0.01,2.60,0.17,0.0000,1,1,1,0.01,0.00,-0.01,0.00,0.00,0.00,0.17,209,31
141,0.5,-2.4,-62.8,0.051,-0.053,-0.971,4.1,-4.2,0.0,0.0036,-0.0017,0.0502,357,161,381,158,0.00,0.01,2.60,0.17,0.0000,1,1,1,0.01,0.00,-0.01,0.00,0.00,0.00,0.17,208,31
151,-0.4,3.7,-0.6,0.039,-0.048,-1.006,4.1,-4.3,0.0,0.0046,-0.0080,0.0005,158,220,210,238,0.00,0.01,2.60,0.17,0.0000,1,1,1,0.01,0.00,-0.01,0.00,0.00,0.00,0.17,208,31
161,0.5,1.1,65.2,-0.015,0.102,-1.058,4.1,-4.2,0.0,0.0036,-0.0051,-0.0508,158,338,188,339,0.00,0.01,2.60,0.17,0.0000,1,1,1,0.01,0.00,-0.01,0.00,0.00,0.00,0.17,208,31
171,0.3,-3.2,-62.7,0.052,-0.058,-0.995,4.1,-4.2,0.0,0.0037,-0.0010,0.0502,360,165,383,158,0.00,0.01,2.60,0.17,0.0000,1,1,1,0.01,0.00,-0.01,0.00,0.00,0.00,0.17,208,31
181,-0.6,2.8,-6.4,0.039,-0.045,-0.998,4.1,-4.3,0.0,0.0047,-0.0082,-0.0042,158,215,209,231,0.00,0.01,2.60,0.17,0.0000,1,1,1,0.01,0.00,-0.01,0.00,0.00,0.00,0.17,209,31
191,0.5,1.3,67.1,-0.017,0.111,-1.054,4.1,-4.2,0.0,0.0036,-0.0055,-0.0537,158,339,189,342,0.00,0.01,2.60,0.17,0.0000,1,1,1,0.01,0.00,-0.01,0.00,0.00,0.00,0.16,209,31
201,0.4,-3.0,-59.7,0.042,-0.038,-0.987,4.1,-4.2,0.0,0.0037,-0.0014,0.0495,358,163,380,158,0.00,0.01,2.60,0.17,0.0000,1,1,1,0.01,0.00,-0.01,0.00,0.00,0.00,0.17,209,31
211,-0.7,2.5,-7.4,0.036,-0.058,-1.003,4.1,-4.3,0.0,0.0048,-0.0079,-0.0033,158,212,209,227,0.00,0.01,2.60,0.17,0.0000,1,1,1,0.01,0.00,-0.01,0.00,0.00,0.00,0.17,209,31
221,-0.1,1.1,68.0,-0.027,0.089,-1.072,4.1,-4.2,0.0,0.0043,-0.0053,-0.0544,158,357,192,360,0.00,0.01,2.60,0.17,0.0000,1,1,1,0.01,0.00,-0.01,0.00,0.00,0.00,0.18,209,31
231,0.3,-3.1,-58.7,0.040,-0.036,-0.980,4.1,-4.2,0.0,0.0037,-0.0013,0.0488,356,163,378,158,0.00,0.01,2.60,0.17,0.0000,1,1,1,0.01,0.00,-0.01,0.00,0.00,0.00,0.19,208,31
241,-0.4,2.6,-8.3,0.045,-0.050,-0.998,4.1,-4.3,0.0,0.0046,-0.0073,0.0035,158,209,210,225,0.00,0.01,2.60,0.17,0.0000,1,1,1,0.01,0.00,-0.01,0.00,0.00,0.00,0.17,208,31
251,0.4,1.6,66.7,-0.020,0.094,-1.070,4.1,-4.2,0.0,0.0037,-0.0057,-0.0520,158,357,192,364,0.00,0.01,2.60,0.17,0.0000,1,1,1,0.01,0.00,-0.01,0.00,0.00,0.00,0.16,208,30
261,0.4,-3.1,-61.8,0.044,-0.061,-0.981,4.1,-4.2,0.0,0.0037,-0.0013,0.0510,354,165,375,158,0.00,0.01,2.60,0.17,0.0000,1,1,1,0.01,0.00,-0.01,0.00,0.00,0.00,0.18,208,30
271,-0.4,3.4,-1.7,0.035,-0.044,-0.994,4.1,-4.3,0.0,0.0045,-0.0081,-0.0016,158,182,206,195,0.00,0.01,2.60,0.17,0.0000,1,1,1,0.01,0.00,-0.01,0.00,0.00,0.00,0.21,208,30
281,0.0,1.4,63.8,-0.018,0.094,-1.065,4.1,-4.1,0.0,0.0040,-0.0055,-0.0495,158,360,194,366,0.00,0.01,2.60,0.18,0.0000,1,1,1,0.01,0.00,0.00,0.00,0.00,0.00,0.19,208,31
291,0.4,-2.7,-65.5,0.046,-0.048,-0.991,4.1,-4.2,0.0,0.0036,-0.0018,0.0537,369,160,391,158,0.00,0.01,2.60,0.18,0.0000,1,1,1,0.01,0.00,0.00,0.00,0.00,0.00,0.18,209,31
301,-0.2,3.5,0.5,0.032,-0.048,-1.001,4.1,-4.2,0.0,0.0044,-0.0078,-0.0004,158,266,213,289,0.00,0.01,2.60,0.18,0.0000,1,1,1,0.01,0.00,0.00,0.00,0.00,0.00,0.17,208,31
311,0.1,0.7,61.8,-0.014,0.088,-1.064,4.1,-4.1,0.0,0.0040,-0.0049,-0.0494,158,298,187,297,0.00,0.01,2.60,0.18,0.0000,1,1,1,0.01,0.00,0.00,0.00,0.00,0.00,0.17,208,31
321,0.3,-2.2,-66.6,0.061,-0.046,-0.980,4.1,-4.2,0.0,0.0037,-0.0020,0.0533,366,161,392,158,0.00,0.01,2.60,0.18,0.0000,1,1,1,0.01,0.00,0.00,0.00,0.00,0.00,0.16,208,31
331,-0.5,4.5,7.6,0.029,-0.043,-0.994,4.1,-4.2,0.0,0.0047,-0.0088,-0.0061,158,267,215,288,0.00,0.01,2.60,0.18,0.0000,1,1,1,0.01,0.00,0.00,0.00,0.00,0.00,0.16,208,31
341,0.0,0.8,58.6,-0.012,0.078,-1.051,4.1,-4.1,0.0,0.0040,-0.0050,-0.0469,158,303,187,301,0.00,0.01,2.60,0.18,0.0000,1,1,1,0.01,0.00,0.00,0.00,0.00,0.00,0.16,208,31
352,0.2,-2.0,-67.2,0.061,-0.061,-0.981,4.1,-4.2,0.0,0.0039,-0.0026,0.0565,366,163,391,158,0.00,0.01,2.60,0.17,0.0000,1,1,1,0.01,0.00,0.00,0.00,0.00,0.00,0.17,208,31
362,-0.5,5.2,10.0,0.022,-0.033,-0.995,4.1,-4.3,0.0,0.0046,-0.0101,-0.0171,158,262,214,284,0.00,0.01,2.60,0.17,0.0000,1,1,1,0.01,0.00,0.00,0.00,0.00,0.00,0.18,209,31
372,0.5,0.9,59.7,-0.011,0.097,-1.051,4.1,-4.2,0.0,0.0036,-0.0052,-0.0478,158,305,186,304,0.00,0.01,2.60,0.17,0.0000,1,1,1,0.01,0.00,0.00,0.00,0.00,0.00,0.20,209,31
382,0.2,-2.0,-67.8,0.063,-0.060,-0.987,4.1,-4.2,0.0,0.0036,-0.0029,0.0572,367,159,392,158,0.00,0.01,2.60,0.18,0.0000,1,1,1,0.01,0.00,0.02,0.00,0.00,0.00,0.18,209,31
392,-0.6,4.6,5.0,0.032,-0.044,-0.989,4.1,-4.3,0.0,0.0048,-0.0090,-0.0040,158,259,216,282,0.00,0.01,2.60,0.18,0.0000,1,1,1,0.01,0.00,0.02,0.00,0.00,0.00,0.16,209,31
402,0.3,0.5,59.8,-0.009,0.086,-1.055,4.1,-4.2,0.0,0.0037,-0.0047,-0.0478,158,323,186,323,0.00,0.01,2.60,0.18,0.0000,1,1,1,0.01,0.00,0.02,0.00,0.00,0.00,0.18,209,31
412,0.5,-2.0,-67.9,0.055,-0.054,-0.991,4.1,-4.2,0.0,0.0035,-0.0027,0.0573,369,160,393,158,0.00,0.01,2.60,0.18,0.0000,1,1,1,0.01,0.00,0.02,0.00,0.00,0.00,0.20,209,31
422,-0.7,4.4,4.5,0.022,-0.050,-0.998,4.1,-4.3,0.0,0.0048,-0.0087,-0.0036,158,258,213,278,0.00,0.01,2.60,0.18,0.0000,1,1,1,0.01,0.00,0.00,0.00,0.00,0.00,0.19,209,31
432,0.2,0.8,60.6,-0.021,0.082,-1.059,4.1,-4.2,0.0,0.0038,-0.0051,-0.0485,158,326,187,327,0.00,0.01,2.60,0.18,0.0000,1,1,1,0.01,0.00,0.00,0.00,0.00,0.00,0.18,209,31
442,0.6,-2.2,-66.8,0.050,-0.058,-0.987,4.1,-4.2,0.0,0.0034,-0.0022,0.0566,368,163,390,158,0.00,0.01,2.60,0.18,0.0000,1,1,1,0.01,0.00,0.00,0.00,0.00,0.00,0.17,209,31
452,-0.3,3.8,3.7,0.034,-0.038,-0.989,4.1,-4.3,0.0,0.0045,-0.0088,-0.0092,158,233,211,251,0.00,0.01,2.60,0.18,0.0000,1,1,1,0.01,0.00,0.00,0.00,0.00,0.00,0.16,210,31
463,0.2,0.6,63.6,-0.011,0.094,-1.061,4.1,-4.2,0.0,0.0039,-0.0044,-0.0458,158,331,189,332,0.00,0.01,2.60,0.18,0.0000,1,1,1,0.01,0.00,0.00,0.00,0.00,0.00,0.16,210,31
473,0.1,-2.0,-66.0,0.056,-0.067,-0.991,4.1,-4.2,0.0,0.0039,-0.0025,0.0541,363,159,389,158,0.00,0.01,2.60,0.18,0.0000,1,1,1,0.01,0.00,0.00,0.00,0.00,0.00,0.16,210,31
483,-0.4,3.9,1.9,0.034,-0.039,-0.999,4.1,-4.3,0.0,0.0046,-0.0082,-0.0015,158,228,212,246,0.00,0.01,2.60,0.18,0.0000,1,1,1,0.01,0.00,0.00,0.00,0.00,0.00,0.16,210,31
493,0.2,0.6,63.7,-0.013,0.098,-1.050,4.1,-4.2,0.0,0.0038,-0.0041,-0.0459,158,331,186,330,0.00,0.01,2.60,0.17,0.0000,1,1,1,0.01,0.00,0.00,0.00,0.00,0.00,0.17,210,31
503,0.1,-3.0,-63.9,0.047,-0.069,-0.987,4.1,-4.2,0.0,0.0040,-0.0016,0.0538,362,165,385,158,0.00,0.01,2.60,0.17,0.0000,1,1,1,0.01,0.00,0.00,0.00,0.00,0.00,0.17,210,31
513,-0.3,3.7,0.5,0.038,-0.043,-0.998,4.1,-4.3,0.0,0.0045,-0.0081,-0.0004,158,223,211,243,0.00,0.01,2.60,0.17,0.0000,1,1,1,0.01,0.00,0.00,0.00,0.00,0.00,0.18,210,31
523,0.7,0.6,63.7,-0.021,0.089,-1.059,4.1,-4.2,0.0,0.0033,-0.0041,-0.0461,158,345,186,348,0.00,0.01,2.60,0.17,0.0000,1,1,1,0.01,0.00,0.00,0.00,0.00,0.00,0.17,210,31
533,0.0,-2.8,-64.7,0.056,-0.055,-0.995,4.1,-4.2,0.0,0.0041,-0.0016,0.0531,359,165,382,158,0.00,0.01,2.60,0.17,0.0000,1,1,1,0.01,0.00,0.00,0.00,0.00,0.00,0.16,209,31
543,-0.3,4.0,-0.7,0.034,-0.042,-0.995,4.1,-4.3,0.0,0.0045,-0.0083,0.0005,158,220,213,240,0.00,0.01,2.60,0.17,0.0000,1,1,1,0.01,0.00,0.00,0.00,0.00,0.00,0.17,209,31
553,0.3,0.6,64.9,-0.008,0.094,-1.058,4.1,-4.2,0.0,0.0038,-0.0043,-0.0471,158,351,189,353,0.00,0.01,2.60,0.17,0.0000,1,1,1,0.01,0.00,0.00,0.00,0.00,0.00,0.17,209,31
563,0.2,-2.5,-64.4,0.052,-0.061,-0.977,4.1,-4.2,0.0,0.0038,-0.0019,0.0529,358,163,381,158,0.00,0.01,2.60,0.17,0.0000,1,1,1,0.01,0.00,0.00,0.00,0.00,0.00,0.17,209,31
573,-0.4,3.8,-1.8,0.039,-0.052,-1.002,4.1,-4.3,0.0,0.0046,-0.0082,0.0014,158,216,211,236,0.00,0.01,2.60,0.17,0.0000,1,1,1,0.01,0.00,0.00,0.00,0.00,0.00,0.18,209,31
584,1.0,0.8,65.7,-0.011,0.102,-1.062,4.1,-4.2,0.0,0.0030,-0.0050,-0.0512,158,351,188,357,0.00,0.01,2.60,0.17,0.0000,1,1,1,0.01,0.00,0.00,0.00,0.00,0.00,0.17,209,31
594,0.8,-2.4,-62.2,0.045,-0.056,-0.982,4.1,-4.2,0.0,0.0033,-0.0018,0.0497,358,162,381,158,0.00,0.01,2.60,0.17,0.0000,1,1,1,0.01,0.00,0.00,0.00,0.00,0.00,0.16,209,31
604,-0.7,3.3,-7.0,0.038,-0.053,-0.998,4.1,-4.3,0.0,0.0048,-0.0085,-0.0036,158,190,209,204,0.00,0.01,2.60,0.17,0.0000,1,1,1,0.01,0.00,0.00,0.00,0.00,0.00,0.18,209,31
614,0.0,0.7,65.6,-0.014,0.090,-1.075,4.1,-4.2,0.0,0.0040,-0.0048,-0.0511,158,354,190,356,0.00,0.01,2.60,0.17,0.0000,1,1,1,0.01,0.00,0.00,0.00,0.00,0.00,0.20,209,31
624,0.5,-2.8,-61.2,0.049,-0.041,-0.984,4.1,-4.2,0.0,0.0036,-0.0014,0.0490,348,164,368,158,0.00,0.01,2.60,0.18,0.0000,1,1,1,0.01,0.00,-0.01,0.00,0.00,0.00,0.19,209,31
634,-0.6,2.6,-7.8,0.036,-0.050,-1.004,4.1,-4.3,0.0,0.0049,-0.0079,-0.0029,158,188,207,199,0.00,0.01,2.60,0.18,0.0000,1,1,1,0.01,0.00,-0.01,0.00,0.00,0.00,0.18,209,31
644,0.0,1.0,65.6,-0.015,0.098,-1.062,4.1,-4.2,0.0,0.0041,-0.0051,-0.0510,158,367,193,371,0.00,0.01,2.60,0.18,0.0000,1,1,1,0.01,0.00,-0.01,0.00,0.00,0.00,0.17,209,31
654,0.5,-2.9,-60.6,0.043,-0.050,-0.983,4.1,-4.2,0.0,0.0036,-0.0013,0.0485,346,164,367,158,0.00,0.01,2.60,0.18,0.0000,1,1,1,0.01,0.00,-0.01,0.00,0.00,0.00,0.17,209,31
664,-0.3,2.2,-8.4,0.043,-0.045,-0.999,4.1,-4.3,0.0,0.0045,-0.0069,0.0036,158,161,201,170,0.00,0.01,2.60,0.18,0.0000,1,1,1,0.01,0.00,-0.01,0.00,0.00,0.00,0.16,209,31
674,0.3,0.9,68.0,-0.021,0.103,-1.066,4.1,-4.2,0.0,0.0037,-0.0052,-0.0544,158,369,191,373,0.00,0.01,2.60,0.17,0.0000,1,1,1,0.01,0.00,-0.01,0.00,0.00,0.00,0.17,209,31
685,0.4,-3.5,-58.2,0.036,-0.041,-0.993,4.1,-4.2,0.0,0.0036,-0.0009,0.0484,348,166,367,158,0.00,0.01,2.60,0.17,0.0000,1,1,1,0.01,0.00,-0.01,0.00,0.00,0.00,0.18,209,31
695,-0.4,1.9,-13.0,0.049,-0.049,-0.999,4.1,-4.3,0.0,0.0046,-0.0063,0.0104,158,159,203,169,0.00,0.01,2.60,0.17,0.0000,1,1,1,0.01,0.00,-0.02,0.00,0.00,0.00,0.18,209,31
705,0.3,2.1,70.0,-0.026,0.095,-1.077,4.1,-4.2,0.0,0.0039,-0.0057,-0.0526,158,372,195,379,0.00,0.01,2.60,0.18,0.0000,1,1,1,0.01,0.00,-0.02,0.00,0.00,0.00,0.18,209,31
715,0.1,-3.8,-55.4,0.041,-0.028,-0.990,4.1,-4.2,0.0,0.0039,-0.0010,0.0481,336,169,355,158,0.00,0.01,2.60,0.18,0.0000,1,1,1,0.01,0.00,-0.02,0.00,0.00,0.00,0.18,208,31
725,-0.5,1.8,-18.3,0.048,-0.058,-1.000,4.1,-4.3,0.0,0.0046,-0.0075,0.0054,161,158,207,169,0.00,0.01,2.60,0.18,0.0000,1,1,1,0.01,0.00,-0.02,0.00,0.00,0.00,0.17,208,31
735,0.0,1.6,69.8,-0.021,0.093,-1.067,4.1,-4.2,0.0,0.0042,-0.0056,-0.0548,158,373,194,376,0.00,0.01,2.60,0.18,0.0000,1,1,1,0.01,0.00,-0.02,0.00,0.00,0.00,0.19,208,31
745,-0.3,-3.3,-54.6,0.030,-0.040,-0.991,4.1,-4.2,0.0,0.0045,-0.0009,0.0437,333,170,355,158,0.00,0.01,2.60,0.18,0.0000,1,1,1,0.01,0.00,0.00,0.00,0.00,0.00,0.21,208,31
755,-0.5,1.5,-19.6,0.047,-0.046,-1.006,4.1,-4.3,0.0,0.0046,-0.0071,0.0064,165,158,209,167,0.00,0.01,2.60,0.18,0.0000,1,1,1,0.01,0.00,0.00,0.00,0.00,0.00,0.20,208,31
765,0.6,1.2,71.4,-0.022,0.104,-1.081,4.1,-4.2,0.0,0.0034,-0.0054,-0.0571,158,371,190,379,0.00,0.01,2.60,0.18,0.0000,1,1,1,0.01,0.00,0.00,0.00,0.00,0.00,0.18,209,31
775,0.4,-3.1,-50.2,0.026,-0.037,-1.003,4.1,-4.2,0.0,0.0036,-0.0018,0.0464,327,165,347,158,0.00,0.01,2.60,0.18,0.0000,1,1,1,0.01,0.00,0.01,0.00,0.00,0.00,0.18,209,31
786,-0.6,1.1,-24.8,0.051,-0.043,-0.994,4.1,-4.3,0.0,0.0047,-0.0055,0.0198,169,158,215,167,0.00,0.01,2.60,0.18,0.0000,1,1,1,0.01,0.00,0.00,0.00,0.00,0.00,0.17,209,31
796,0.0,1.7,72.7,-0.018,0.097,-1.092,4.1,-4.2,0.0,0.0041,-0.0057,-0.0559,158,385,195,391,0.00,0.01,2.60,0.18,0.0000,1,1,1,0.01,0.00,0.00,0.00,0.00,0.00,0.17,209,31
806,0.1,-4.1,-46.9,0.019,-0.039,-1.005,4.1,-4.2,0.0,0.0039,-0.0005,0.0420,328,169,347,158,0.00,0.01,2.60,0.18,0.0000,1,1,1,0.01,0.00,0.01,0.00,0.00,0.00,0.16,209,31
816,-0.6,0.5,-25.3,0.045,-0.054,-0.997,4.1,-4.3,0.0,0.0047,-0.0048,0.0202,194,158,234,161,0.00,0.01,2.60,0.18,0.0000,1,1,1,0.01,0.00,0.00,0.00,0.00,0.00,0.17,209,31
826,0.3,2.2,73.1,-0.027,0.107,-1.081,4.1,-4.2,0.0,0.0039,-0.0062,-0.0565,158,386,196,395,0.00,0.01,2.60,0.18,0.0000,1,1,1,0.01,0.00,0.00,0.00,0.00,0.00,0.18,209,31
836,0.6,-4.2,-45.7,0.024,-0.025,-0.997,4.1,-4.2,0.0,0.0034,0.0000,0.0365,325,167,343,158,0.00,0.01,2.60,0.18,0.0000,1,1,1,0.01,0.00,0.01,0.00,0.00,0.00,0.19,209,31
846,-0.4,0.5,-26.4,0.050,-0.050,-1.000,4.1,-4.3,0.0,0.0046,-0.0048,0.0211,198,158,237,162,0.00,0.01,2.60,0.18,0.0000,1,1,1,0.01,0.00,0.00,0.00,0.00,0.00,0.18,209,31
856,0.0,1.9,72.4,-0.020,0.109,-1.079,4.1,-4.2,0.0,0.0041,-0.0060,-0.0575,158,386,195,392,0.00,0.01,2.60,0.18,0.0000,1,1,1,0.01,0.00,0.00,0.00,0.00,0.00,0.17,209,31
866,0.1,-5.2,-41.1,0.021,-0.027,-0.990,4.1,-4.2,0.0,0.0039,0.0002,0.0400,310,174,324,158,0.00,0.01,2.60,0.18,0.0000,1,1,1,0.01,0.00,0.01,0.00,0.00,0.00,0.18,209,31
876,-0.3,0.0,-31.3,0.050,-0.044,-1.000,4.1,-4.3,0.0,0.0045,-0.0048,0.0222,203,158,241,162,0.00,0.01,2.60,0.18,0.0000,1,1,1,0.01,0.00,0.00,0.00,0.00,0.00,0.20,209,31
887,0.4,2.4,73.0,-0.030,0.105,-1.080,4.1,-4.2,0.0,0.0036,-0.0067,-0.0584,158,385,194,394,0.00,0.01,2.60,0.18,0.0000,1,1,1,0.01,0.00,0.00,0.00,0.00,0.00,0.19,209,31
897,-0.1,-5.4,-40.2,0.013,-0.020,-1.008,4.1,-4.2,0.0,0.0042,0.0006,0.0395,310,177,324,158,0.00,0.01,2.60,0.18,0.0000,1,1,1,0.01,0.00,0.00,0.00,0.00,0.00,0.19,209,31
907,-0.7,-0.8,-35.8,0.050,-0.050,-0.989,4.1,-4.3,0.0,0.0049,-0.0034,0.0287,204,158,243,158,0.00,0.01,2.60,0.18,0.0000,1,1,1,0.01,0.00,0.00,0.00,0.00,0.00,0.18,209,31
917,0.4,2.8,73.7,-0.034,0.104,-1.094,4.1,-4.2,0.0,0.0036,-0.0070,-0.0589,158,389,198,399,0.00,0.01,2.60,0.18,0.0000,1,1,1,0.01,0.00,0.00,0.00,0.00,0.00,0.17,209,31
927,0.1,-5.4,-39.7,0.022,-0.012,-0.993,4.1,-4.2,0.0,0.0038,0.0005,0.0392,308,175,321,158,0.00,0.01,2.60,0.18,0.0000,1,1,1,0.01,0.00,0.00,0.00,0.00,0.00,0.17,209,31
937,-0.7,-0.8,-37.5,0.054,-0.054,-1.007,4.1,-4.3,0.0,0.0049,-0.0034,0.0300,211,158,248,159,0.00,0.01,2.60,0.18,0.0000,1,1,1,0.01,0.00,0.00,0.00,0.00,0.00,0.17,209,31
947,0.4,2.1,73.2,-0.024,0.102,-1.074,4.1,-4.2,0.0,0.0037,-0.0059,-0.0581,158,392,195,400,0.00,0.01,2.60,0.18,0.0000,1,1,1,0.01,0.00,0.00,0.00,0.00,0.00,0.17,209,31
957,0.3,-5.5,-34.0,0.010,-0.017,-1.014,4.1,-4.2,0.0,0.0037,0.0010,0.0325,302,174,314,158,0.00,0.01,2.60,0.18,0.0000,1,1,1,0.01,0.00,0.00,0.00,0.00,0.00,0.18,210,31
967,-0.7,-0.8,-38.2,0.049,-0.051,-0.991,4.1,-4.3,0.0,0.0048,-0.0034,0.0306,216,158,253,161,0.00,0.01,2.60,0.18,0.0000,1,1,1,0.01,0.00,0.00,0.00,0.00,0.00,0.18,210,31
977,0.4,2.5,72.8,-0.033,0.100,-1.076,4.1,-4.2,0.0,0.0039,-0.0063,-0.0579,158,392,197,401,0.00,0.01,2.60,0.18,0.0000,1,1,1,0.01,0.00,0.00,0.00,0.00,0.00,0.18,211,31
987,0.0,-5.9,-33.7,0.012,-0.014,-1.017,4.1,-4.2,0.0,0.0040,0.0015,0.0323,303,177,314,158,0.00,0.01,2.60,0.18,0.0000,1,1,1,0.01,0.00,0.00,0.00,0.00,0.00,0.17,211,31
998,-0.4,-0.8,-38.6,0.050,-0.045,-0.984,4.1,-4.3,0.0,0.0045,-0.0034,0.0309,239,159,272,158,0.00,0.01,2.60,0.18,0.0000,1,1,1,0.01,0.00,0.00,0.00,0.00,0.00,0.17,211,31
1008,0.5,2.7,72.9,-0.038,0.093,-1.100,4.1,-4.2,0.0,0.0036,-0.0069,-0.0583,158,393,197,402,0.00,0.01,2.60,0.18,0.0000,1,1,1,0.01,0.00,0.00,0.00,0.00,0.00,0.17,211,31
1018,0.0,-5.8,-33.3,0.008,-0.004,-0.998,4.1,-4.2,0.0,0.0041,0.0016,0.0267,301,175,313,158,0.00,0.01,2.60,0.18,0.0000,1,1,1,0.01,0.00,0.00,0.00,0.00,0.00,0.18,210,31
1028,-0.5,-0.9,-42.2,0.052,-0.042,-0.989,4.1,-4.3,0.0,0.0047,-0.0037,0.0312,238,159,274,158,0.00,0.01,2.60,0.18,0.0000,1,1,1,0.01,0.00,0.00,0.00,0.00,0.00,0.18,210,31
1038,0.5,2.3,73.0,-0.033,0.090,-1.095,4.1,-4.2,0.0,0.0035,-0.0065,-0.0584,158,392,194,402,0.00,0.01,2.60,0.18,0.0000,1,1,1,0.01,0.00,0.00,0.00,0.00,0.00,0.19,210,31
1048,0.2,-5.6,-28.3,0.001,0.000,-0.996,4.1,-4.2,0.0,0.0036,0.0012,0.0309,297,175,308,158,0.00,0.01,2.60,0.18,0.0000,1,1,1,0.01,0.00,0.00,0.00,0.00,0.00,0.18,211,31
1058,-0.3,-1.1,-46.6,0.050,-0.049,-0.992,4.1,-4.3,0.0,0.0044,-0.0031,0.0372,244,159,278,158,0.00,0.01,2.60,0.18,0.0000,1,1,1,0.01,0.00,0.00,0.00,0.00,0.00,0.17,211,31
1068,0.4,3.1,72.4,-0.031,0.108,-1.075,4.1,-4.2,0.0,0.0039,-0.0067,-0.0587,158,395,197,403,0.00,0.01,2.60,0.18,0.0000,1,1,1,0.01,0.00,0.00,0.00,0.00,0.00,0.19,211,31
1078,0.0,-5.7,-27.5,-0.001,-0.004,-1.014,4.1,-4.2,0.0,0.0040,0.0016,0.0248,278,178,287,158,0.00,0.01,2.60,0.18,0.0000,1,1,1,0.01,0.00,0.00,0.00,0.00,0.00,0.21,211,31
1089,-0.5,-1.7,-48.1,0.052,-0.046,-0.989,4.1,-4.3,0.0,0.0047,-0.0025,0.0384,251,162,284,158,0.00,0.01,2.60,0.18,0.0000,1,1,1,0.01,0.00,0.00,0.00,0.00,0.00,0.20,211,31
1099,0.4,2.9,71.8,-0.040,0.099,-1.101,4.1,-4.2,0.0,0.0039,-0.0066,-0.0585,158,394,198,403,0.00,0.01,2.60,0.18,0.0000,1,1,1,0.01,0.00,0.00,0.00,0.00,0.00,0.18,211,31
1109,-0.3,-5.2,-22.6,-0.007,0.005,-1.011,4.1,-4.2,0.0,0.0044,0.0009,0.0181,272,176,285,158,0.00,0.01,2.60,0.18,0.0000,1,1,1,0.01,0.00,0.00,0.00,0.00,0.00,0.18,210,31
1119,-0.4,-2.4,-51.1,0.056,-0.039,-0.987,4.1,-4.2,0.0,0.0047,-0.0026,0.0340,254,163,285,158,0.00,0.01,2.60,0.18,0.0000,1,1,1,0.01,0.00,0.00,0.00,0.00,0.00,0.17,210,31
1129,0.5,3.0,72.7,-0.036,0.090,-1.074,4.1,-4.2,0.0,0.0036,-0.0071,-0.0586,158,395,197,406,0.00,0.01,2.60,0.18,0.0000,1,1,1,0.01,0.00,0.00,0.00,0.00,0.00,0.17,210,31
1139,0.0,-4.8,-21.5,-0.007,0.002,-1.010,4.1,-4.2,0.0,0.0041,0.0006,0.0172,268,174,281,158,0.00,0.01,2.60,0.18,0.0000,1,1,1,0.01,0.00,0.00,0.00,0.00,0.00,0.17,210,31
1149,-0.6,-2.1,-49.2,0.059,-0.041,-0.995,4.1,-4.3,0.0,0.0048,-0.0021,0.0393,278,165,308,158,0.00,0.01,2.60,0.18,0.0000,1,1,1,0.01,0.00,0.00,0.00,0.00,0.00,0.18,210,31
1159,0.5,2.9,72.2,-0.032,0.093,-1.077,4.1,-4.2,0.0,0.0037,-0.0066,-0.0590,158,395,197,406,0.00,0.01,2.60,0.18,0.0000,1,1,1,0.01,0.00,0.00,0.00,0.00,0.00,0.18,210,31
1169,-0.3,-5.0,-20.1,-0.007,-0.005,-1.008,4.1,-4.2,0.0,0.0044,0.0008,0.0161,266,177,279,158,0.00,0.01,2.60,0.18,0.0000,1,1,1,0.01,0.00,0.00,0.00,0.00,0.00,0.19,210,31
1179,-0.7,-1.7,-53.2,0.059,-0.048,-0.982,4.1,-4.2,0.0,0.0048,-0.0033,0.0358,281,164,312,158,0.00,0.01,2.60,0.18,0.0000,1,1,1,0.01,0.00,0.00,0.00,0.00,0.00,0.18,209,31
1189,0.6,2.8,71.2,-0.036,0.099,-1.084,4.1,-4.2,0.0,0.0035,-0.0067,-0.0576,158,393,195,402,0.00,0.01,2.60,0.18,0.0000,1,1,1,0.01,0.00,0.00,0.00,0.00,0.00,0.16,209,31
1200,0.3,-4.8,-15.3,-0.013,0.024,-0.994,4.1,-4.1,0.0,0.0038,0.0010,0.0212,264,177,274,158,0.00,0.01,2.60,0.18,0.0000,1,1,1,0.01,0.00,0.00,0.00,0.00,0.00,0.18,209,31
1210,-0.2,-2.3,-56.7,0.063,-0.040,-0.990,4.1,-4.2,0.0,0.0043,-0.0019,0.0454,286,163,314,158,0.00,0.01,2.60,0.18,0.0000,1,1,1,0.01,0.00,0.00,0.00,0.00,0.00,0.20,209,31
1220,0.7,3.7,68.6,-0.040,0.084,-1.084,4.1,-4.2,0.0,0.0034,-0.0073,-0.0575,158,392,197,405,0.00,0.01,2.60,0.18,0.0000,1,1,1,0.01,0.00,0.00,0.00,0.00,0.00,0.19,210,31
1230,-0.3,-4.5,-10.0,-0.011,0.031,-0.997,4.1,-4.2,0.0,0.0044,0.0006,0.0141,237,177,250,158,0.00,0.01,2.60,0.18,0.0000,1,1,1,0.01,0.00,0.00,0.00,0.00,0.00,0.19,210,31
1240,-0.2,-2.6,-59.0,0.065,-0.047,-0.987,4.1,-4.2,0.0,0.0046,-0.0024,0.0414,286,164,316,158,0.00,0.01,2.60,0.18,0.0000,1,1,1,0.01,0.00,0.00,0.00,0.00,0.00,0.18,210,31
1250,0.9,3.9,68.5,-0.034,0.078,-1.070,4.1,-4.2,0.0,0.0034,-0.0075,-0.0574,158,388,200,403,0.00,0.01,2.60,0.18,0.0000,1,1,1,0.01,0.00,0.00,0.00,0.00,0.00,0.17,210,31
1260,-0.2,-4.7,-8.1,-0.018,0.018,-1.021,4.1,-4.2,0.0,0.0043,0.0005,0.0065,233,178,244,158,0.00,0.01,2.60,0.18,0.0000,1,1,1,0.01,0.00,0.00,0.00,0.00,0.00,0.16,210,31
1270,-0.6,-2.3,-57.3,0.064,-0.047,-0.979,4.1,-4.2,0.0,0.0047,-0.0019,0.0458,290,166,319,158,0.00,0.01,2.60,0.18,0.0000,1,1,1,0.01,0.00,0.00,0.00,0.00,0.00,0.16,210,31
1280,0.5,3.6,67.1,-0.032,0.094,-1.067,4.1,-4.2,0.0,0.0036,-0.0076,-0.0547,158,386,200,399,0.00,0.01,2.60,0.18,0.0000,1,1,1,0.01,0.00,0.00,0.00,0.00,0.00,0.17,210,31
1290,0.0,-4.5,-7.6,-0.014,0.016,-1.012,4.1,-4.1,0.0,0.0041,0.0003,0.0061,231,176,242,158,0.00,0.01,2.60,0.18,0.0000,1,1,1,0.01,0.00,0.00,0.00,0.00,0.00,0.18,210,31
1301,0.0,-2.5,-62.4,0.062,-0.049,-0.974,4.1,-4.2,0.0,0.0041,-0.0017,0.0499,293,165,322,158,0.00,0.01,2.60,0.18,0.0000,1,1,1,0.01,0.00,0.00,0.00,0.00,0.00,0.18,210,31
1311,0.3,4.1,64.7,-0.032,0.074,-1.068,4.1,-4.2,0.0,0.0038,-0.0083,-0.0517,158,384,201,398,0.00,0.01,2.60,0.18,0.0000,1,1,1,0.01,0.00,0.00,0.00,0.00,0.00,0.19,210,31
1321,-0.3,-4.0,-2.2,-0.016,0.038,-0.999,4.1,-4.1,0.0,0.0042,0.0005,0.0110,226,177,238,158,0.00,0.01,2.60,0.18,0.0000,1,1,1,0.01,0.00,0.00,0.00,0.00,0.00,0.18,210,31
1331,0.0,-2.5,-62.4,0.059,-0.050,-0.978,4.1,-4.2,0.0,0.0041,-0.0017,0.0499,312,166,337,158,0.00,0.01,2.60,0.18,0.0000,1,1,1,0.01,0.00,0.00,0.00,0.00,0.00,0.16,210,31
1341,0.6,4.9,63.5,-0.035,0.056,-1.055,4.1,-4.2,0.0,0.0034,-0.0089,-0.0523,158,386,201,403,0.00,0.01,2.60,0.18,0.0000,1,1,1,0.01,0.00,0.00,0.00,0.00,0.00,0.17,210,31
1351,0.0,-3.7,-0.9,-0.015,0.034,-1.019,4.1,-4.1,0.0,0.0040,-0.0001,0.0038,198,175,211,158,0.00,0.01,2.60,0.18,0.0000,1,1,1,0.01,0.00,0.00,0.00,0.00,0.00,0.18,210,31
1361,-0.1,-2.7,-63.4,0.066,-0.053,-0.959,4.1,-4.2,0.0,0.0043,-0.0014,0.0507,317,168,342,158,0.00,0.01,2.60,0.18,0.0000,1,1,1,0.01,0.00,0.00,0.00,0.00,0.00,0.18,210,31
1371,0.1,4.9,62.4,-0.027,0.066,-1.058,4.1,-4.2,0.0,0.0038,-0.0084,-0.0540,158,384,203,400,0.00,0.01,2.60,0.18,0.0000,1,1,1,0.01,0.00,0.00,0.00,0.00,0.00,0.18,210,31
1381,-0.2,-3.5,-0.2,-0.010,0.019,-1.005,4.1,-4.2,0.0,0.0043,-0.0003,0.0033,194,175,210,158,0.00,0.01,2.60,0.18,0.0000,1,1,1,0.01,0.00,0.00,0.00,0.00,0.00,0.18,209,31
1391,0.1,-2.9,-64.2,0.065,-0.053,-0.973,4.1,-4.2,0.0,0.0040,-0.0013,0.0513,320,166,343,158,0.00,0.01,2.60,0.18,0.0000,1,1,1,0.01,0.00,0.00,0.00,0.00,0.00,0.17,209,31
1402,0.5,5.0,58.4,-0.031,0.056,-1.038,4.1,-4.2,0.0,0.0035,-0.0089,-0.0499,158,370,203,389,0.00,0.01,2.60,0.18,0.0000,1,1,1,0.01,0.00,0.00,0.00,0.00,0.00,0.18,209,31
1412,-0.1,-2.7,9.6,-0.017,0.048,-1.022,4.1,-4.1,0.0,0.0042,-0.0001,0.0015,189,176,203,158,0.00,0.01,2.60,0.18,0.0000,1,1,1,0.01,0.00,0.00,0.00,0.00,0.00,0.19,209,31
1422,0.0,-3.4,-66.9,0.066,-0.046,-0.968,4.1,-4.2,0.0,0.0042,-0.0008,0.0522,326,169,348,158,0.00,0.01,2.60,0.18,0.0000,1,1,1,0.01,0.00,0.00,0.00,0.00,0.00,0.18,209,31
1432,0.1,5.2,59.4,-0.038,0.036,-1.065,4.1,-4.2,0.0,0.0039,-0.0094,-0.0475,158,375,205,394,0.00,0.01,2.61,0.18,0.0000,1,1,1,0.01,0.00,0.00,0.00,0.00,0.00,0.18,209,31
1442,-0.5,-3.1,10.9,-0.018,0.060,-1.016,4.1,-4.2,0.0,0.0048,-0.0006,-0.0056,185,177,202,158,0.00,0.01,2.60,0.18,0.0000,1,1,1,0.01,0.00,0.00,0.00,0.00,0.00,0.18,209,31
1452,0.2,-3.6,-66.5,0.073,-0.047,-0.968,4.1,-4.2,0.0,0.0040,-0.0009,0.0491,340,170,359,158,0.00,0.01,2.60,0.18,0.0000,1,1,1,0.01,0.00,0.00,0.00,0.00,0.00,0.18,210,31
1462,0.2,4.9,59.0,-0.024,0.044,-1.049,4.1,-4.2,0.0,0.0039,-0.0091,-0.0472,158,374,204,391,0.00,0.01,2.61,0.18,0.0000,1,1,1,0.01,0.00,0.00,0.00,0.00,0.00,0.17,210,31
1472,-0.3,-2.5,12.2,-0.021,0.043,-1.035,4.1,-4.2,0.0,0.0044,-0.0007,-0.0005,178,173,196,158,0.00,0.01,2.60,0.18,0.0000,1,1,1,0.01,0.00,0.00,0.00,0.00,0.00,0.16,210,31
1482,0.5,-3.3,-66.8,0.062,-0.053,-0.962,4.1,-4.2,0.0,0.0037,-0.0009,0.0522,341,169,360,158,0.00,0.01,2.60,0.18,0.0000,1,1,1,0.01,0.00,0.00,0.00,0.00,0.00,0.17,210,31
1492,0.0,4.8,54.7,-0.027,0.036,-1.047,4.1,-4.2,0.0,0.0040,-0.0089,-0.0458,158,369,202,387,0.00,0.01,2.61,0.18,0.0000,1,1,1,0.01,0.00,0.00,0.00,0.00,0.00,0.18,210,31
1502,-0.2,-2.4,13.1,-0.015,0.040,-1.007,4.1,-4.2,0.0,0.0043,-0.0013,-0.0074,176,174,193,158,0.00,0.01,2.60,0.18,0.0000,1,1,1,0.01,0.00,0.00,0.00,0.00,0.00,0.18,210,31
1512,0.2,-2.8,-67.7,0.066,-0.050,-0.974,4.1,-4.2,0.0,0.0040,-0.0014,0.0530,342,169,364,158,0.00,0.01,2.60,0.18,0.0000,1,1,1,0.01,0.00,0.00,0.00,0.00,0.00,0.17,210,31
1522,0.2,4.8,59.0,-0.036,0.035,-1.044,4.1,-4.2,0.0,0.0039,-0.0089,-0.0490,158,369,204,387,0.00,0.01,2.60,0.18,0.0000,1,1,1,0.01,0.00,0.00,0.00,0.00,0.00,0.16,211,30
1532,-0.5,-3.2,6.2,-0.012,0.044,-1.022,4.1,-4.1,0.0,0.0046,-0.0006,-0.0019,174,175,192,158,0.00,0.01,2.60,0.18,0.0000,1,1,1,0.01,0.00,0.00,0.00,0.00,0.00,0.19,211,30
1542,0.1,-2.9,-65.3,0.071,-0.046,-0.959,4.1,-4.2,0.0,0.0041,-0.0014,0.0508,345,168,366,158,0.00,0.01,2.60,0.18,0.0000,1,1,1,0.01,0.00,0.00,0.00,0.00,0.00,0.22,211,30
1552,0.9,5.4,63.2,-0.037,0.056,-1.050,4.1,-4.2,0.0,0.0032,-0.0094,-0.0520,158,367,206,391,0.00,0.01,2.61,0.18,0.0000,1,1,1,0.01,0.00,0.00,0.00,0.00,0.00,0.20,211,31
1563,-0.1,-3.6,-0.2,-0.015,0.040,-1.023,4.1,-4.1,0.0,0.0043,-0.0002,0.0032,243,178,254,158,0.00,0.01,2.60,0.18,0.0000,1,1,1,0.01,0.00,0.02,0.00,0.00,0.00,0.18,211,31
1573,0.1,-3.0,-62.1,0.063,-0.058,-0.978,4.1,-4.2,0.0,0.0040,-0.0013,0.0481,283,163,309,158,0.00,0.01,2.60,0.18,0.0000,1,1,1,0.01,0.00,0.02,0.00,0.00,0.00,0.18,210,31
1583,0.7,5.0,63.7,-0.034,0.079,-1.052,4.1,-4.2,0.0,0.0034,-0.0093,-0.0510,158,391,198,405,0.00,0.01,2.61,0.18,0.0000,1,1,1,0.01,0.00,0.02,0.00,0.00,0.00,0.17,210,31
1593,0.0,-4.0,-2.6,-0.021,0.024,-1.026,4.1,-4.2,0.0,0.0040,-0.0001,0.0021,240,178,250,158,0.00,0.01,2.60,0.18,0.0000,1,1,1,0.01,0.00,0.02,0.00,0.00,0.00,0.16,210,31
1603,0.0,-3.2,-62.9,0.067,-0.034,-0.971,4.1,-4.3,0.0,0.0045,-0.0013,0.0452,288,168,315,158,0.00,0.01,2.60,0.18,0.0000,1,1,1,0.01,0.00,0.02,0.00,0.00,0.00,0.16,209,31
1613,0.1,5.1,62.8,-0.038,0.058,-1.065,4.1,-4.2,0.0,0.0039,-0.0094,-0.0502,158,387,202,402,0.00,0.01,2.61,0.18,0.0000,1,1,1,0.01,0.00,0.02,0.00,0.00,0.00,0.17,209,31
1623,-0.7,-4.2,2.6,-0.014,0.034,-1.015,4.1,-4.2,0.0,0.0048,0.0004,0.0009,237,181,247,158,0.00,0.01,2.60,0.18,0.0000,1,1,1,0.01,0.00,0.02,0.00,0.00,0.00,0.17,209,31
1643,0.6,4.6,62.4,-0.042,0.046,-1.061,4.1,-4.2,0.0,0.0035,-0.0089,-0.0499,158,386,199,400,0.00,0.01,2.61,0.18,0.0000,1,1,1,0.01,0.00,0.02,0.00,0.00,0.00,0.18,210,31
1653,-0.2,-4.1,-0.2,-0.013,0.046,-1.017,4.1,-4.2,0.0,0.0043,0.0000,0.0002,233,179,244,158,0.00,0.01,2.60,0.18,0.0000,1,1,1,0.01,0.00,0.02,0.00,0.00,0.00,0.17,211,31
1663,0.0,-3.7,-63.2,0.071,-0.046,-0.958,4.1,-4.2,0.0,0.0043,-0.0005,0.0491,312,171,334,158,0.00,0.01,2.60,0.18,0.0000,1,1,1,0.01,0.00,0.02,0.00,0.00,0.00,0.18,210,31
1673,0.1,4.1,62.2,-0.028,0.059,-1.044,4.1,-4.2,0.0,0.0040,-0.0084,-0.0497,158,387,199,400,0.00,0.01,2.61,0.18,0.0000,1,1,1,0.01,0.00,0.02,0.00,0.00,0.00,0.19,210,31
1683,-0.5,-3.3,4.6,-0.020,0.030,-1.029,4.1,-4.2,0.0,0.0046,-0.0006,-0.0006,225,175,240,158,0.00,0.01,2.60,0.18,0.0000,1,1,1,0.01,0.00,0.02,0.00,0.00,0.00,0.19,210,31
1694,0.2,-2.8,-65.2,0.068,-0.055,-0.965,4.1,-4.2,0.0,0.0039,-0.0014,0.0522,311,166,335,158,0.00,0.01,2.60,0.18,0.0000,1,1,1,0.01,0.00,0.02,0.00,0.00,0.00,0.19,209,31
1704,0.4,4.6,58.6,-0.031,0.048,-1.041,4.1,-4.2,0.0,0.0036,-0.0081,-0.0517,158,384,199,397,0.00,0.01,2.61,0.18,0.0000,1,1,1,0.01,0.00,0.01,0.00,0.00,0.00,0.18,209,31
1714,-0.1,-3.6,5.4,-0.023,0.028,-1.027,4.1,-4.2,0.0,0.0042,-0.0002,-0.0013,225,177,237,158,0.00,0.01,2.60,0.18,0.0000,1,1,1,0.01,0.00,0.02,0.00,0.00,0.00,0.17,209,31
1724,0.1,-2.9,-65.9,0.074,-0.044,-0.967,4.1,-4.2,0.0,0.0040,-0.0013,0.0527,313,167,338,158,0.00,0.01,2.60,0.18,0.0000,1,1,1,0.01,0.00,0.02,0.00,0.00,0.00,0.17,209,31
1734,0.5,5.3,58.0,-0.031,0.036,-1.041,4.1,-4.2,0.0,0.0035,-0.0094,-0.0481,158,381,201,398,0.00,0.01,2.61,0.18,0.0000,1,1,1,0.01,0.00,0.01,0.00,0.00,0.00,0.16,209,31
1744,0.0,-2.8,9.9,-0.017,0.059,-1.024,4.1,-4.2,0.0,0.0041,-0.0013,-0.0079,202,178,214,158,0.00,0.01,2.60,0.18,0.0000,1,1,1,0.01,0.00,0.02,0.00,0.00,0.00,0.17,209,31
1754,0.4,-3.4,-68.1,0.070,-0.056,-0.962,4.1,-4.2,0.0,0.0040,-0.0008,0.0508,318,169,340,158,0.00,0.01,2.60,0.18,0.0000,1,1,1,0.01,0.00,0.01,0.00,0.00,0.00,0.17,209,31
1764,0.2,5.3,56.5,-0.029,0.037,-1.036,4.1,-4.2,0.0,0.0036,-0.0091,-0.0488,158,376,202,394,0.00,0.01,2.61,0.18,0.0000,1,1,1,0.01,0.00,0.01,0.00,0.00,0.00,0.18,209,31
1774,-0.1,-2.3,11.3,-0.019,0.051,-1.011,4.1,-4.2,0.0,0.0042,-0.0018,-0.0090,196,177,211,158,0.00,0.01,2.60,0.18,0.0000,1,1,1,0.01,0.00,0.02,0.00,0.00,0.00,0.18,209,31
1784,0.0,-2.7,-67.5,0.064,-0.054,-0.966,4.1,-4.2,0.0,0.0045,-0.0015,0.0504,316,170,342,158,0.00,0.01,2.60,0.18,0.0000,1,1,1,0.01,0.00,0.01,0.00,0.00,0.00,0.17,209,31
1794,0.2,4.8,55.0,-0.027,0.039,-1.049,4.1,-4.2,0.0,0.0039,-0.0091,-0.0440,158,374,201,390,0.00,0.01,2.61,0.18,0.0000,1,1,1,0.01,0.00,0.01,0.00,0.00,0.00,0.17,209,31
1805,-0.4,-2.5,16.3,-0.019,0.035,-1.019,4.1,-4.2,0.0,0.0046,-0.0006,-0.0039,191,177,207,158,0.00,0.01,2.60,0.18,0.0000,1,1,1,0.01,0.00,0.01,0.00,0.00,0.00,0.17,209,31
1815,0.1,-3.2,-69.7,0.075,-0.045,-0.961,4.1,-4.2,0.0,0.0040,-0.0010,0.0557,334,168,357,158,0.00,0.01,2.60,0.18,0.0000,1,1,1,0.01,0.00,0.01,0.00,0.00,0.00,0.18,209,31
1825,0.3,5.4,54.2,-0.019,0.025,-1.039,4.1,-4.2,0.0,0.0038,-0.0097,-0.0434,158,373,204,392,0.00,0.01,2.61,0.18,0.0000,1,1,1,0.01,0.00,0.01,0.00,0.00,0.00,0.18,210,31
1835,-0.3,-1.8,17.8,-0.018,0.060,-1.028,4.1,-4.2,0.0,0.0047,-0.0011,-0.0050,187,176,203,158,0.00,0.01,2.60,0.18,0.0000,1,1,1,0.01,0.00,0.01,0.00,0.00,0.00,0.18,210,31
1845,0.1,-3.1,-70.1,0.068,-0.053,-0.948,4.1,-4.2,0.0,0.0040,-0.0011,0.0561,339,169,360,158,0.00,0.01,2.60,0.18,0.0000,1,1,1,0.01,0.00,0.01,0.00,0.00,0.00,0.17,210,31
1855,0.2,5.3,50.4,-0.023,0.013,-1.035,4.1,-4.2,0.0,0.0036,-0.0091,-0.0464,158,370,203,388,0.00,0.01,2.61,0.18,0.0000,1,1,1,0.01,0.00,0.01,0.00,0.00,0.00,0.16,210,31
1865,0.0,-1.7,23.4,-0.016,0.064,-1.033,4.1,-4.2,0.0,0.0042,-0.0024,-0.0187,180,176,198,158,0.00,0.01,2.60,0.18,0.0000,1,1,1,0.01,0.00,0.01,0.00,0.00,0.00,0.18,210,30
1875,0.3,-2.5,-71.4,0.075,-0.057,-0.946,4.1,-4.2,0.0,0.0038,-0.0016,0.0565,341,167,362,158,0.00,0.01,2.60,0.18,0.0000,1,1,1,0.01,0.00,0.01,0.00,0.00,0.00,0.19,209,30
1885,0.0,5.9,50.6,-0.024,0.015,-1.029,4.1,-4.2,0.0,0.0039,-0.0097,-0.0467,158,373,205,392,0.00,0.01,2.61,0.18,0.0000,1,1,1,0.01,0.00,0.01,0.01,0.00,0.00,0.18,209,30
1895,-0.2,-1.8,24.4,-0.022,0.046,-1.038,4.1,-4.2,0.0,0.0043,-0.0023,-0.0195,177,176,194,158,0.00,0.01,2.60,0.18,0.0000,1,1,1,0.01,0.00,0.01,0.00,0.00,0.00,0.17,209,30
1906,0.8,-2.6,-71.5,0.067,-0.056,-0.950,4.1,-4.2,0.0,0.0034,-0.0015,0.0565,339,168,361,158,0.00,0.01,2.60,0.18,0.0000,1,1,1,0.01,0.00,0.01,0.00,0.00,0.00,0.17,209,30
1916,0.1,5.4,46.6,-0.015,0.022,-1.036,4.1,-4.2,0.0,0.0040,-0.0097,-0.0372,158,369,202,388,0.00,0.01,2.61,0.18,0.0000,1,1,1,0.01,0.00,0.01,0.01,0.00,0.00,0.17,209,30
1926,0.0,-1.2,28.7,-0.014,0.068,-1.012,4.1,-4.2,0.0,0.0043,-0.0018,-0.0140,175,174,191,158,0.00,0.01,2.60,0.18,0.0000,1,1,1,0.01,0.00,0.01,0.00,0.00,0.00,0.16,209,30
1936,0.7,-3.2,-71.2,0.064,-0.044,-0.968,4.1,-4.2,0.0,0.0035,-0.0009,0.0564,342,171,363,158,0.00,0.01,2.60,0.18,0.0000,1,1,1,0.01,0.00,0.01,0.00,0.00,0.00,0.16,209,30
1946,-0.5,5.2,44.2,-0.007,-0.001,-1.025,4.1,-4.2,0.0,0.0047,-0.0095,-0.0354,158,365,204,381,0.00,0.01,2.61,0.18,0.0000,1,1,1,0.01,0.00,0.01,0.01,0.00,0.00,0.16,209,30
1956,-0.3,-0.9,29.6,-0.018,0.071,-1.031,4.1,-4.1,0.0,0.0045,-0.0021,-0.0150,193,175,210,158,0.00,0.01,2.60,0.18,0.0000,1,1,1,0.01,0.00,0.01,0.00,0.00,0.00,0.17,209,30
1966,0.6,-2.4,-71.8,0.073,-0.057,-0.966,4.1,-4.2,0.0,0.0035,-0.0017,0.0574,345,168,364,158,0.00,0.01,2.60,0.18,0.0000,1,1,1,0.01,0.00,0.01,0.00,0.00,0.00,0.18,208,30
1976,0.0,6.0,40.0,-0.011,-0.008,-1.012,4.1,-4.2,0.0,0.0040,-0.0102,-0.0345,158,362,206,382,0.00,0.01,2.61,0.18,0.0000,1,1,1,0.01,0.00,0.01,0.01,0.00,0.00,0.18,209,30
1986,0.1,-0.4,30.5,-0.021,0.054,-1.029,4.1,-4.1,0.0,0.0040,-0.0033,-0.0216,158,190,178,175,0.00,0.01,2.60,0.18,0.0000,1,1,1,0.01,0.00,0.01,0.00,0.00,0.00,0.17,209,30
1996,0.6,-3.1,-71.5,0.078,-0.066,-0.945,4.1,-4.2,0.0,0.0034,-0.0011,0.0572,346,169,364,158,0.00,0.01,2.60,0.18,0.0000,1,1,1,0.01,0.00,0.01,0.01,0.00,0.00,0.16,209,30
2006,0.3,6.2,42.6,-0.003,0.021,-1.037,4.1,-4.2,0.0,0.0038,-0.0105,-0.0341,158,349,207,372,0.00,0.01,2.61,0.18,0.0000,1,1,1,0.01,0.00,0.01,0.01,0.00,0.00,0.18,209,30
2016,-0.1,-0.6,28.5,-0.015,0.053,-1.040,4.1,-4.1,0.0,0.0043,-0.0035,-0.0228,163,177,183,158,0.00,0.01,2.60,0.18,0.0000,1,1,1,0.01,0.00,0.01,0.00,0.00,0.00,0.20,209,30
2026,0.0,-3.4,-70.7,0.079,-0.053,-0.950,4.1,-4.2,0.0,0.0042,-0.0008,0.0566,357,173,377,158,0.00,0.01,2.60,0.18,0.0000,1,1,1,0.01,0.00,0.00,0.00,0.00,0.00,0.19,209,31
2036,-0.3,5.3,47.8,-0.020,0.007,-1.027,4.1,-4.2,0.0,0.0045,-0.0096,-0.0383,158,350,209,368,0.00,0.01,2.61,0.18,0.0000,1,1,1,0.01,0.00,0.00,0.00,0.00,0.00,0.18,209,31
2046,-0.3,-1.0,20.7,-0.013,0.066,-1.037,4.1,-4.2,0.0,0.0044,-0.0031,-0.0165,158,216,184,208,0.00,0.01,2.60,0.18,0.0000,1,1,1,0.01,0.00,0.00,0.00,0.00,0.00,0.18,210,31
2056,1.4,-3.1,-69.5,0.067,-0.043,-0.957,4.1,-4.2,0.0,0.0026,-0.0011,0.0556,357,165,372,158,0.00,0.01,2.60,0.18,0.0000,1,1,1,0.01,0.00,0.00,0.00,0.00,0.00,0.17,209,31
2066,0.3,5.1,51.8,-0.031,0.024,-1.027,4.1,-4.2,0.0,0.0038,-0.0093,-0.0414,158,343,206,363,0.00,0.01,2.61,0.18,0.0000,1,1,1,0.01,0.00,0.00,0.00,0.00,0.00,0.16,209,31
2077,-0.3,-1.1,18.2,-0.013,0.061,-1.015,4.1,-4.1,0.0,0.0045,-0.0025,-0.0116,158,219,185,212,0.00,0.01,2.60,0.18,0.0000,1,1,1,0.01,0.00,0.00,0.00,0.00,0.00,0.16,209,31
2087,0.5,-3.2,-68.6,0.068,-0.058,-0.971,4.1,-4.2,0.0,0.0036,-0.0009,0.0539,311,169,333,158,0.00,0.01,2.60,0.18,0.0000,1,1,1,0.01,0.00,0.00,0.00,0.00,0.00,0.16,209,31
2097,0.1,4.9,53.7,-0.023,0.035,-1.037,4.1,-4.2,0.0,0.0039,-0.0090,-0.0449,158,375,203,391,0.00,0.01,2.61,0.18,0.0000,1,1,1,0.01,0.00,0.00,0.00,0.00,0.00,0.17,210,31
2107,-0.5,-2.3,16.7,-0.017,0.043,-1.029,4.1,-4.1,0.0,0.0046,-0.0018,-0.0134,202,179,215,158,0.00,0.01,2.60,0.18,0.0000,1,1,1,0.01,0.00,0.00,0.00,0.00,0.00,0.19,210,31
2117,0.2,-3.3,-68.8,0.073,-0.057,-0.967,4.1,-4.2,0.0,0.0040,-0.0007,0.0520,296,168,320,158,0.00,0.01,2.60,0.18,0.0000,1,1,1,0.01,0.00,0.00,0.00,0.00,0.00,0.20,210,31
2127,0.3,5.9,51.4,-0.020,0.014,-1.033,4.1,-4.2,0.0,0.0038,-0.0102,-0.0411,158,375,203,394,0.00,0.01,2.61,0.18,0.0000,1,1,1,0.01,0.00,0.01,0.00,0.00,0.00,0.18,210,31
2137,-0.1,-1.4,17.0,-0.016,0.054,-1.035,4.1,-4.1,0.0,0.0043,-0.0027,-0.0136,198,174,214,158,0.00,0.01,2.60,0.18,0.0000,1,1,1,0.01,0.00,0.01,0.00,0.00,0.00,0.16,210,31
2147,0.4,-3.1,-69.1,0.072,-0.043,-0.957,4.1,-4.2,0.0,0.0037,-0.0010,0.0544,328,170,350,158,0.00,0.01,2.60,0.18,0.0000,1,1,1,0.01,0.00,0.01,0.00,0.00,0.00,0.18,210,31
2157,-0.1,5.0,50.2,-0.019,0.012,-1.034,4.1,-4.2,0.0,0.0042,-0.0093,-0.0402,158,377,204,391,0.00,0.01,2.61,0.18,0.0000,1,1,1,0.01,0.00,0.01,0.00,0.00,0.00,0.19,210,31
2167,-0.8,-1.4,21.8,-0.014,0.041,-1.039,4.1,-4.1,0.0,0.0051,-0.0017,-0.0084,170,175,191,158,0.00,0.01,2.60,0.18,0.0000,1,1,1,0.01,0.00,0.01,0.00,0.00,0.00,0.19,210,31
2177,0.3,-3.1,-70.8,0.070,-0.053,-0.959,4.1,-4.2,0.0,0.0038,-0.0012,0.0558,331,165,355,158,0.00,0.01,2.60,0.18,0.0000,1,1,1,0.01,0.00,0.01,0.00,0.00,0.00,0.17,210,31
2187,0.4,5.7,49.5,-0.020,0.021,-1.030,4.1,-4.2,0.0,0.0037,-0.0100,-0.0396,158,372,202,391,0.00,0.01,2.61,0.18,0.0000,1,1,1,0.01,0.00,0.01,0.00,0.00,0.00,0.16,210,31
2197,0.2,-2.1,23.7,-0.017,0.064,-1.038,4.1,-4.1,0.0,0.0041,-0.0009,-0.0100,215,176,229,158,0.00,0.01,2.60,0.18,0.0000,1,1,1,0.01,0.00,0.01,0.00,0.00,0.00,0.17,210,31
2207,0.3,-3.0,-69.9,0.070,-0.059,-0.942,4.1,-4.2,0.0,0.0038,-0.0011,0.0552,332,169,355,158,0.00,0.01,2.60,0.18,0.0000,1,1,1,0.01,0.00,0.01,0.00,0.00,0.00,0.17,210,31
2217,0.0,5.7,51.9,-0.023,0.021,-1.030,4.1,-4.2,0.0,0.0041,-0.0098,-0.0435,158,381,203,397,0.00,0.01,2.61,0.18,0.0000,1,1,1,0.01,0.00,0.01,0.00,0.00,0.00,0.17,210,31
2227,-0.5,-2.3,15.6,-0.018,0.056,-1.046,4.1,-4.1,0.0,0.0048,-0.0014,-0.0095,167,177,185,158,0.00,0.01,2.60,0.18,0.0000,1,1,1,0.01,0.00,0.01,0.00,0.00,0.00,0.17,210,31
2237,0.3,-3.6,-67.7,0.069,-0.043,-0.961,4.1,-4.2,0.0,0.0038,-0.0004,0.0532,335,170,353,158,0.00,0.01,2.60,0.18,0.0000,1,1,1,0.01,0.00,0.01,0.00,0.00,0.00,0.17,210,31
2248,0.5,5.7,56.1,-0.037,0.027,-1.042,4.1,-4.2,0.0,0.0034,-0.0097,-0.0466,158,359,205,381,0.00,0.01,2.61,0.18,0.0000,1,1,1,0.01,0.00,0.01,0.00,0.00,0.00,0.17,210,31
2258,-0.2,-3.2,7.8,-0.008,0.046,-1.012,4.1,-4.1,0.0,0.0044,-0.0006,-0.0032,169,175,186,158,0.00,0.01,2.60,0.18,0.0000,1,1,1,0.01,0.00,0.01,0.00,0.00,0.00,0.17,209,31
2268,0.4,-3.5,-63.9,0.072,-0.038,-0.973,4.1,-4.2,0.0,0.0038,-0.0007,0.0498,343,170,361,158,0.00,0.01,2.60,0.17,0.0000,1,1,1,0.01,0.00,0.01,0.00,0.00,0.00,0.16,209,31
2278,0.3,4.3,59.5,-0.030,0.055,-1.053,4.1,-4.2,0.0,0.0037,-0.0083,-0.0491,158,358,204,375,0.00,0.01,2.61,0.17,0.0000,1,1,1,0.01,0.00,0.01,0.00,0.00,0.00,0.17,209,31
2288,-0.8,-3.5,3.6,-0.016,0.015,-1.028,4.1,-4.1,0.0,0.0050,-0.0006,-0.0029,237,179,253,158,0.00,0.01,2.60,0.17,0.0000,1,1,1,0.01,0.00,0.01,0.00,0.00,0.00,0.17,210,31
2298,0.0,-2.9,-62.1,0.068,-0.048,-0.968,4.1,-4.2,0.0,0.0042,-0.0013,0.0497,279,164,306,158,0.00,0.01,2.60,0.17,0.0000,1,1,1,0.01,0.00,0.01,0.00,0.00,0.00,0.18,210,31
2308,0.8,4.8,59.8,-0.032,0.055,-1.059,4.1,-4.2,0.0,0.0032,-0.0085,-0.0521,158,381,200,398,0.00,0.01,2.61,0.17,0.0000,1,1,1,0.01,0.00,0.01,0.00,0.00,0.00,0.18,210,31
2318,0.0,-2.8,5.7,-0.018,0.037,-1.016,4.1,-4.1,0.0,0.0041,-0.0013,-0.0046,233,176,246,158,0.00,0.01,2.60,0.17,0.0000,1,1,1,0.01,0.00,0.01,0.00,0.00,0.00,0.17,210,31
2328,0.2,-3.5,-63.7,0.063,-0.043,-0.971,4.1,-4.2,0.0,0.0039,-0.0007,0.0509,288,168,312,158,0.00,0.01,2.60,0.17,0.0000,1,1,1,0.01,0.00,0.01,0.00,0.00,0.00,0.16,210,31
2338,0.4,4.0,61.0,-0.025,0.047,-1.055,4.1,-4.2,0.0,0.0037,-0.0077,-0.0532,158,388,199,400,0.00,0.01,2.61,0.17,0.0000,1,1,1,0.01,0.00,0.01,0.00,0.00,0.00,0.19,210,31
2348,-0.5,-3.1,2.4,-0.017,0.044,-1.020,4.1,-4.1,0.0,0.0047,-0.0006,0.0011,232,176,249,158,0.00,0.01,2.60,0.18,0.0000,1,1,1,0.01,0.00,0.00,0.00,0.00,0.00,0.21,210,31
2358,-0.3,-2.9,-64.5,0.065,-0.058,-0.969,4.1,-4.2,0.0,0.0045,-0.0012,0.0516,308,171,333,158,0.00,0.01,2.60,0.18,0.0000,1,1,1,0.01,0.00,0.00,0.00,0.00,0.00,0.20,209,31
2368,0.1,4.7,60.4,-0.027,0.047,-1.047,4.1,-4.2,0.0,0.0039,-0.0084,-0.0528,158,387,201,401,0.00,0.01,2.61,0.18,0.0000,1,1,1,0.01,0.00,0.00,0.00,0.00,0.00,0.18,209,31
2378,0.1,-3.4,3.3,-0.018,0.038,-1.028,4.1,-4.1,0.0,0.0039,-0.0005,0.0003,207,173,220,158,0.00,0.01,2.60,0.18,0.0000,1,1,1,0.01,0.00,0.00,0.00,0.00,0.00,0.17,209,31
2388,0.6,-3.1,-65.7,0.066,-0.045,-0.952,4.1,-4.2,0.0,0.0035,-0.0011,0.0526,314,167,335,158,0.00,0.01,2.60,0.18,0.0000,1,1,1,0.01,0.00,0.00,0.00,0.00,0.00,0.16,209,31
2398,0.7,5.0,59.6,-0.037,0.060,-1.046,4.1,-4.2,0.0,0.0033,-0.0089,-0.0494,158,384,197,398,0.00,0.01,2.61,0.18,0.0000,1,1,1,0.01,0.00,0.00,0.00,0.00,0.00,0.16,209,31
2409,0.0,-3.3,8.7,-0.009,0.045,-1.002,4.1,-4.1,0.0,0.0041,0.0000,-0.0007,206,178,218,158,0.00,0.01,2.60,0.18,0.0000,1,1,1,0.01,0.00,0.00,0.00,0.00,0.00,0.16,209,31
2419,-0.4,-3.3,-67.4,0.073,-0.056,-0.968,4.2,-4.2,0.0,0.0050,-0.0011,0.0500,313,170,340,158,0.00,0.01,2.60,0.17,0.0000,1,1,1,0.01,0.00,0.00,0.00,0.00,0.00,0.17,209,31
2429,-0.3,5.0,59.0,-0.029,0.030,-1.046,4.1,-4.2,0.0,0.0044,-0.0091,-0.0490,158,388,202,400,0.00,0.01,2.61,0.17,0.0000,1,1,1,0.01,0.00,0.00,0.00,0.00,0.00,0.18,209,31
2439,-0.6,-3.2,10.2,-0.012,0.046,-1.025,4.1,-4.1,0.0,0.0047,-0.0009,-0.0082,200,178,214,158,0.00,0.01,2.60,0.17,0.0000,1,1,1,0.01,0.00,0.00,0.00,0.00,0.00,0.19,209,31
2449,0.7,-3.1,-67.8,0.068,-0.056,-0.956,4.1,-4.2,0.0,0.0036,-0.0011,0.0505,317,166,338,158,0.00,0.01,2.60,0.18,0.0000,1,1,1,0.01,0.00,0.00,0.00,0.00,0.00,0.18,208,31
2459,0.6,5.0,58.9,-0.031,0.046,-1.049,4.1,-4.2,0.0,0.0035,-0.0090,-0.0489,158,377,201,395,0.00,0.01,2.61,0.18,0.0000,1,1,1,0.01,0.00,0.00,0.00,0.00,0.00,0.16,208,31
2469,-0.1,-2.7,11.0,-0.022,0.050,-1.016,4.1,-4.1,0.0,0.0043,-0.0014,-0.0088,195,176,212,158,0.00,0.01,2.60,0.18,0.0000,1,1,1,0.01,0.00,0.00,0.00,0.00,0.00,0.19,208,31
2479,0.3,-3.7,-68.2,0.071,-0.047,-0.962,4.1,-4.2,0.0,0.0041,-0.0006,0.0509,335,171,355,158,0.00,0.01,2.60,0.18,0.0000,1,1,1,0.01,0.00,0.00,0.00,0.00,0.00,0.21,208,31
2489,0.2,4.6,55.6,-0.024,0.040,-1.027,4.1,-4.2,0.0,0.0039,-0.0089,-0.0445,158,377,203,392,0.00,0.01,2.61,0.18,0.0000,1,1,1,0.01,0.00,0.00,0.00,0.00,0.00,0.20,209,31
2499,-0.5,-2.2,16.2,-0.016,0.044,-1.019,4.1,-4.1,0.0,0.0048,-0.0009,-0.0038,190,176,208,158,0.00,0.01,2.60,0.18,0.0000,1,1,1,0.01,0.00,0.00,0.00,0.00,0.00,0.18,209,31
2509,0.4,-2.9,-68.3,0.069,-0.049,-0.962,4.1,-4.2,0.0,0.0038,-0.0012,0.0537,335,169,357,158,0.00,0.01,2.60,0.18,0.0000,1,1,1,0.01,0.00,0.00,0.00,0.00,0.00,0.17,209,31
2520,0.5,5.3,54.4,-0.025,0.023,-1.032,4.1,-4.2,0.0,0.0036,-0.0095,-0.0435,158,372,202,392,0.00,0.01,2.61,0.18,0.0000,1,1,1,0.01,0.00,0.00,0.00,0.00,0.00,0.16,210,31
2530,-0.1,-1.7,17.8,-0.018,0.058,-1.030,4.1,-4.1,0.0,0.0044,-0.0013,-0.0050,185,174,202,158,0.00,0.01,2.60,0.18,0.0000,1,1,1,0.01,0.00,0.00,0.00,0.00,0.00,0.16,210,31
2540,0.5,-2.7,-69.1,0.066,-0.049,-0.967,4.1,-4.2,0.0,0.0036,-0.0014,0.0543,337,167,359,158,0.00,0.01,2.60,0.18,0.0000,1,1,1,0.01,0.00,0.00,0.00,0.00,0.00,0.15,210,31
2550,0.1,5.7,54.1,-0.024,0.027,-1.031,4.1,-4.2,0.0,0.0040,-0.0099,-0.0432,158,374,204,392,0.00,0.01,2.61,0.18,0.0000,1,1,1,0.01,0.00,-0.01,0.00,0.00,0.00,0.16,210,31
2560,-0.4,-1.9,18.3,-0.013,0.056,-1.039,4.1,-4.1,0.0,0.0046,-0.0009,-0.0054,160,175,178,158,0.00,0.01,2.60,0.18,0.0000,1,1,1,0.01,0.00,0.00,0.00,0.00,0.00,0.17,210,31
2570,0.1,-3.4,-69.8,0.071,-0.060,-0.962,4.1,-4.2,0.0,0.0041,-0.0007,0.0549,343,172,363,158,0.00,0.01,2.60,0.17,0.0000,1,1,1,0.01,0.00,0.00,0.00,0.00,0.00,0.18,210,31
2580,0.1,6.2,52.9,-0.022,0.036,-1.029,4.1,-4.2,0.0,0.0040,-0.0105,-0.0423,158,370,205,391,0.00,0.01,2.61,0.18,0.0000,1,1,1,0.01,0.00,-0.01,0.00,0.00,0.00,0.18,210,31
2590,-0.1,-1.4,19.8,-0.019,0.040,-1.029,4.1,-4.1,0.0,0.0042,-0.0014,-0.0067,158,176,176,162,0.00,0.01,2.60,0.18,0.0000,1,1,1,0.01,0.00,-0.01,0.00,0.00,0.00,0.17,210,31
2600,0.6,-3.3,-71.1,0.073,-0.052,-0.957,4.1,-4.2,0.0,0.0037,-0.0009,0.0552,343,169,364,158,0.00,0.01,2.60,0.18,0.0000,1,1,1,0.01,0.00,-0.01,0.00,0.00,0.00,0.16,210,31
2610,0.0,5.9,51.9,-0.027,0.028,-1.033,4.1,-4.2,0.0,0.0042,-0.0102,-0.0415,158,359,208,380,0.00,0.01,2.61,0.17,0.0000,1,1,1,0.01,0.00,-0.01,0.00,0.00,0.00,0.17,210,31
2620,-0.6,-1.9,22.0,-0.017,0.057,-1.020,4.1,-4.1,0.0,0.0048,-0.0009,-0.0084,158,185,177,167,0.00,0.01,2.60,0.17,0.0000,1,1,1,0.01,0.00,-0.01,0.00,0.00,0.00,0.18,210,31
2630,0.2,-3.2,-71.3,0.073,-0.055,-0.963,4.1,-4.2,0.0,0.0039,-0.0010,0.0571,345,169,367,158,0.00,0.01,2.60,0.17,0.0000,1,1,1,0.01,0.00,-0.01,0.00,0.00,0.00,0.18,210,31
2641,-0.3,6.2,47.3,-0.025,0.000,-1.028,4.1,-4.2,0.0,0.0042,-0.0099,-0.0442,158,354,209,375,0.00,0.01,2.61,0.17,0.0000,1,1,1,0.01,0.00,-0.01,0.00,0.00,0.00,0.18,210,31
2651,0.0,-1.0,26.8,-0.009,0.061,-1.034,4.1,-4.1,0.0,0.0041,-0.0030,-0.0215,158,187,176,173,0.00,0.01,2.60,0.18,0.0000,1,1,1,0.01,0.00,-0.01,0.00,0.00,0.00,0.17,210,31
2661,0.9,-3.2,-72.0,0.079,-0.055,-0.947,4.1,-4.2,0.0,0.0032,-0.0009,0.0571,348,169,366,158,0.00,0.01,2.60,0.17,0.0000,1,1,1,0.01,0.00,-0.01,0.00,0.00,0.00,0.17,210,31
2671,-0.2,5.9,46.5,-0.013,0.015,-1.029,4.1,-4.2,0.0,0.0042,-0.0100,-0.0395,158,352,207,372,0.00,0.01,2.61,0.17,0.0000,1,1,1,0.01,0.00,-0.01,0.00,0.00,0.00,0.19,210,31
2681,-0.2,-1.1,27.8,-0.012,0.055,-1.027,4.1,-4.1,0.0,0.0043,-0.0030,-0.0222,158,191,178,176,0.00,0.01,2.60,0.18,0.0000,1,1,1,0.01,0.00,-0.01,0.00,0.00,0.00,0.18,209,31
2691,0.1,-2.9,-71.6,0.078,-0.062,-0.948,4.1,-4.2,0.0,0.0040,-0.0010,0.0553,346,169,366,158,0.00,0.01,2.60,0.18,0.0000,1,1,1,0.01,0.00,-0.01,0.00,0.00,0.00,0.17,209,31
2701,-0.2,6.1,45.6,-0.020,0.002,-1.034,4.1,-4.2,0.0,0.0043,-0.0102,-0.0388,158,350,208,371,0.00,0.01,2.61,0.18,0.0000,1,1,1,0.01,0.00,-0.01,0.00,0.00,0.00,0.17,209,31
2711,0.0,-1.1,28.9,-0.022,0.053,-1.052,4.1,-4.1,0.0,0.0041,-0.0030,-0.0231,158,195,177,180,0.00,0.01,2.60,0.18,0.0000,1,1,1,0.01,0.00,-0.01,0.00,0.00,0.00,0.17,209,31
2721,0.7,-2.7,-71.3,0.071,-0.049,-0.950,4.1,-4.2,0.0,0.0035,-0.0014,0.0553,355,167,374,158,0.00,0.01,2.60,0.17,0.0000,1,1,1,0.01,0.00,-0.01,0.00,0.00,0.00,0.16,210,31
2731,0.0,5.3,44.1,-0.018,0.000,-1.024,4.1,-4.2,0.0,0.0040,-0.0095,-0.0377,158,346,206,366,0.00,0.01,2.61,0.17,0.0000,1,1,1,0.01,0.00,-0.01,0.00,0.00,0.00,0.16,210,31
2742,0.0,-0.7,29.8,-0.013,0.061,-1.030,4.1,-4.1,0.0,0.0042,-0.0034,-0.0238,158,221,181,211,0.00,0.01,2.60,0.17,0.0000,1,1,1,0.01,0.00,-0.01,0.00,0.00,0.00,0.16,210,31
2752,0.6,-2.3,-72.0,0.073,-0.057,-0.961,4.1,-4.2,0.0,0.0036,-0.0016,0.0559,357,167,377,158,0.00,0.01,2.60,0.17,0.0000,1,1,1,0.01,0.00,-0.01,0.00,0.00,0.00,0.17,210,31
2762,-0.1,6.0,40.1,-0.009,-0.003,-1.019,4.1,-4.2,0.0,0.0042,-0.0101,-0.0370,158,330,210,352,0.00,0.01,2.61,0.17,0.0000,1,1,1,0.01,0.00,-0.01,0.00,0.00,0.00,0.18,210,31
2772,-0.1,-0.5,34.3,-0.017,0.073,-1.033,4.1,-4.1,0.0,0.0043,-0.0031,-0.0247,158,224,180,212,0.00,0.01,2.60,0.17,0.0000,1,1,1,0.01,0.00,-0.01,0.00,0.00,0.00,0.18,210,31
2782,0.4,-2.5,-72.0,0.071,-0.074,-0.952,4.1,-4.2,0.0,0.0037,-0.0015,0.0572,359,168,378,158,0.00,0.01,2.60,0.17,0.0000,1,1,1,0.01,0.00,-0.01,0.00,0.00,0.00,0.17,210,31
2792,-0.4,5.7,39.9,0.000,-0.003,-1.019,4.1,-4.2,0.0,0.0045,-0.0100,-0.0319,158,331,210,352,0.00,0.01,2.61,0.17,0.0000,1,1,1,0.01,0.00,-0.02,0.00,0.00,0.00,0.16,210,30
2802,0.3,-0.1,35.9,-0.015,0.059,-1.026,4.1,-4.1,0.0,0.0040,-0.0028,-0.0202,158,228,181,219,0.00,0.01,2.60,0.17,0.0000,1,1,1,0.01,0.00,-0.01,0.00,0.00,0.00,0.19,210,30
2812,0.3,-2.3,-71.8,0.070,-0.059,-0.950,4.1,-4.2,0.0,0.0038,-0.0017,0.0572,360,169,381,158,0.00,0.01,2.60,0.17,0.0000,1,1,1,0.01,0.00,-0.02,0.00,0.00,0.00,0.21,210,30
2822,-0.5,5.8,38.4,-0.002,-0.001,-1.010,4.1,-4.2,0.0,0.0046,-0.0101,-0.0307,158,326,210,348,0.00,0.01,2.61,0.18,0.0000,1,1,1,0.01,0.00,0.00,0.00,0.00,0.00,0.20,210,31
2832,0.0,-0.3,36.9,-0.008,0.066,-1.044,4.1,-4.1,0.0,0.0042,-0.0027,-0.0212,158,233,182,224,0.00,0.01,2.60,0.18,0.0000,1,1,1,0.01,0.00,0.00,0.00,0.00,0.00,0.18,210,31
2842,0.6,-2.8,-72.0,0.073,-0.053,-0.954,4.1,-4.2,0.0,0.0035,-0.0013,0.0574,367,168,385,158,0.00,0.01,2.60,0.18,0.0000,1,1,1,0.01,0.00,0.00,0.00,0.00,0.00,0.17,210,31
2852,0.1,5.8,37.1,-0.012,-0.006,-1.013,4.1,-4.2,0.0,0.0040,-0.0100,-0.0297,158,322,209,345,0.00,0.01,2.61,0.18,0.0000,1,1,1,0.01,0.00,0.00,0.00,0.00,0.00,0.17,210,31
2862,0.0,-0.5,34.1,-0.017,0.081,-1.044,4.1,-4.1,0.0,0.0041,-0.0036,-0.0273,158,235,183,227,0.00,0.01,2.60,0.18,0.0000,1,1,1,0.01,0.00,0.00,0.00,0.00,0.00,0.16,209,31
2872,0.6,-3.1,-72.3,0.072,-0.066,-0.940,4.1,-4.2,0.0,0.0035,-0.0010,0.0579,370,168,387,158,0.00,0.01,2.60,0.18,0.0000,1,1,1,0.01,0.00,0.00,0.00,0.00,0.00,0.16,209,31
2882,-0.1,5.8,42.6,-0.013,0.006,-1.022,4.1,-4.2,0.0,0.0043,-0.0100,-0.0341,158,321,211,342,0.00,0.01,2.61,0.17,0.0000,1,1,1,0.01,0.00,0.00,0.00,0.00,0.00,0.16,209,31
2892,0.0,-0.9,28.3,-0.022,0.054,-1.039,4.1,-4.1,0.0,0.0041,-0.0031,-0.0226,158,259,186,256,0.00,0.01,2.60,0.17,0.0000,1,1,1,0.01,0.00,0.00,0.00,0.00,0.00,0.17,209,31
2902,0.9,-3.0,-72.0,0.072,-0.058,-0.959,4.1,-4.2,0.0,0.0032,-0.0011,0.0576,341,168,359,158,0.00,0.01,2.60,0.17,0.0000,1,1,1,0.01,0.00,0.00,0.00,0.00,0.00,0.18,210,31
2912,0.2,5.3,48.0,-0.011,0.019,-1.017,4.1,-4.2,0.0,0.0038,-0.0096,-0.0384,158,373,203,389,0.00,0.01,2.61,0.17,0.0000,1,1,1,0.01,0.00,0.00,0.00,0.00,0.00,0.18,210,31
2922,0.0,-1.6,23.3,-0.023,0.067,-1.035,4.1,-4.1,0.0,0.0042,-0.0025,-0.0186,158,178,179,162,0.00,0.01,2.60,0.17,0.0000,1,1,1,0.01,0.00,0.00,0.00,0.00,0.00,0.17,210,31
2932,0.3,-2.5,-71.2,0.070,-0.046,-0.961,4.1,-4.2,0.0,0.0038,-0.0015,0.0564,341,170,363,158,0.00,0.01,2.60,0.17,0.0000,1,1,1,0.01,0.00,0.00,0.00,0.00,0.00,0.16,209,31
2942,-0.1,5.4,49.2,-0.016,0.009,-1.028,4.1,-4.2,0.0,0.0041,-0.0095,-0.0416,158,358,205,377,0.00,0.01,2.61,0.17,0.0000,1,1,1,0.01,0.00,0.00,0.00,0.00,0.00,0.18,209,31
2953,-0.2,-2.0,20.9,-0.017,0.054,-1.028,4.1,-4.1,0.0,0.0043,-0.0017,-0.0138,158,181,176,166,0.00,0.01,2.60,0.17,0.0000,1,1,1,0.01,0.00,0.00,0.00,0.00,0.00,0.20,208,31
2963,0.5,-2.9,-70.7,0.071,-0.053,-0.965,4.1,-4.2,0.0,0.0035,-0.0013,0.0565,344,169,364,158,0.00,0.01,2.60,0.17,0.0036,1,1,1,0.01,0.00,0.00,0.00,0.00,0.00,0.19,209,31
2973,0.1,5.9,47.8,-0.015,0.017,-1.026,4.1,-4.2,0.0,0.0036,-0.0096,-0.0445,158,353,206,374,0.00,0.01,2.61,0.18,0.0036,1,1,1,0.01,0.00,-0.01,0.00,0.00,0.00,0.18,210,31
2983,0.0,-1.5,21.9,-0.023,0.058,-1.035,4.1,-4.1,0.0,0.0042,-0.0021,-0.0146,171,198,191,182,0.00,0.01,2.60,0.18,0.0146,1,1,1,0.01,0.00,0.00,0.00,0.00,0.00,0.17,210,31
2993,0.5,-3.1,-71.2,0.069,-0.057,-0.953,4.1,-4.2,0.0,0.0036,-0.0011,0.0570,357,170,375,158,0.00,0.01,2.60,0.18,0.0146,1,1,1,0.01,0.00,0.00,0.00,0.00,0.00,0.16,211,31
3003,0.0,5.9,46.9,-0.012,0.007,-1.021,4.1,-4.2,0.0,0.0038,-0.0096,-0.0440,158,352,206,373,0.00,0.01,2.61,0.18,0.0213,1,1,1,0.01,0.00,-0.01,0.00,0.00,0.00,0.16,211,31
3013,-0.2,-0.7,26.8,-0.007,0.046,-1.027,4.1,-4.1,0.0,0.0043,-0.0034,-0.0214,182,212,202,198,0.00,0.01,2.60,0.17,0.0213,1,1,1,0.01,0.00,0.00,0.00,0.00,0.00,0.16,211,31
3023,0.4,-2.6,-70.4,0.076,-0.055,-0.956,4.1,-4.2,0.0,0.0036,-0.0015,0.0563,352,168,373,158,0.00,0.01,2.60,0.17,0.0305,1,1,1,0.01,0.00,0.00,0.00,0.00,0.00,0.16,211,31
3033,0.0,5.9,46.5,-0.018,0.009,-1.018,4.1,-4.2,0.0,0.0039,-0.0096,-0.0436,158,351,207,371,0.00,0.01,2.61,0.17,0.0305,1,1,1,0.01,0.00,-0.01,0.00,0.00,0.00,0.17,211,31
3043,-0.3,-0.9,27.9,-0.012,0.061,-1.018,4.1,-4.1,0.0,0.0045,-0.0032,-0.0223,196,232,217,216,0.00,0.01,2.60,0.17,0.0305,1,1,0,0.01,0.00,0.00,0.00,0.00,0.00,0.17,211,31
3053,0.3,-3.1,-70.6,0.075,-0.053,-0.962,4.1,-4.2,0.0,0.0038,-0.0010,0.0547,354,169,373,158,0.00,0.01,2.60,0.17,0.0305,1,1,1,0.01,0.00,0.00,0.00,0.00,0.00,0.17,211,31
3064,0.0,6.2,41.3,-0.009,0.003,-1.017,4.1,-4.2,0.0,0.0040,-0.0104,-0.0378,158,346,209,369,0.00,0.01,2.61,0.17,0.0305,1,1,1,0.01,0.00,-0.01,0.00,0.00,0.00,0.17,211,31
3074,0.0,0.0,32.5,-0.012,0.068,-1.050,4.1,-4.1,0.0,0.0041,-0.0038,-0.0233,193,233,215,221,0.00,0.01,2.60,0.17,0.0305,1,1,1,0.01,0.00,-0.01,0.00,0.00,0.00,0.16,211,31
3084,0.6,-2.6,-71.7,0.069,-0.061,-0.961,4.1,-4.2,0.0,0.0035,-0.0014,0.0569,358,168,377,158,0.00,0.01,2.60,0.17,0.0305,1,1,1,0.01,0.00,-0.01,0.00,0.00,0.00,0.17,211,31
3094,-0.1,6.0,39.4,-0.005,0.000,-1.012,4.1,-4.2,0.0,0.0043,-0.0102,-0.0314,158,343,208,363,0.00,0.01,2.61,0.17,0.0305,1,1,1,0.01,0.00,-0.01,0.00,0.00,0.00,0.17,211,31
3104,0.0,-0.2,34.0,-0.015,0.064,-1.049,4.1,-4.1,0.0,0.0042,-0.0028,-0.0188,197,263,221,254,0.00,0.01,2.60,0.17,0.0402,1,1,0,0.01,0.00,-0.01,0.00,0.00,0.00,0.18,211,31
3114,0.6,-2.6,-71.6,0.073,-0.051,-0.955,4.1,-4.2,0.0,0.0035,-0.0015,0.0573,358,168,376,158,0.00,0.01,2.60,0.17,0.0402,1,1,1,0.01,0.00,-0.01,0.00,0.00,0.00,0.18,211,31
3124,0.0,6.3,38.1,-0.008,-0.004,-1.016,4.1,-4.2,0.0,0.0042,-0.0106,-0.0304,158,324,211,347,0.00,0.01,2.61,0.17,0.0536,1,1,0,0.01,0.00,-0.01,0.00,0.00,0.00,0.18,210,31
3134,-0.2,0.5,36.1,-0.020,0.069,-1.048,4.1,-4.1,0.0,0.0046,-0.0037,-0.0206,217,291,246,284,0.00,0.01,2.60,0.17,0.0536,1,1,0,0.01,0.00,-0.01,0.00,0.00,0.00,0.17,210,31
3144,0.2,-3.8,-70.9,0.080,-0.053,-0.954,4.1,-4.2,0.0,0.0039,-0.0004,0.0564,368,174,385,161,0.00,0.01,2.60,0.17,0.0604,1,1,0,0.01,0.00,-0.01,0.00,0.00,0.00,0.19,210,31
3154,-0.3,5.3,36.6,-0.007,-0.013,-1.025,4.1,-4.2,0.0,0.0045,-0.0095,-0.0292,173,336,224,355,0.00,0.01,2.61,0.18,0.0604,1,1,0,0.01,0.00,-0.02,0.00,0.00,0.00,0.20,210,31
3164,0.0,0.8,37.6,-0.022,0.070,-1.046,4.1,-4.1,0.0,0.0044,-0.0040,-0.0220,226,306,256,300,0.00,0.01,2.60,0.18,0.0604,1,1,0,0.01,0.00,-0.02,0.00,0.00,0.00,0.18,211,31
3175,0.5,-2.9,-71.0,0.073,-0.054,-0.958,4.1,-4.2,0.0,0.0035,-0.0012,0.0569,369,171,387,162,0.00,0.01,2.60,0.18,0.0604,1,1,0,0.01,0.00,-0.02,0.00,0.00,0.00,0.17,211,31
3185,0.1,5.5,33.1,0.000,-0.004,-1.020,4.1,-4.2,0.0,0.0040,-0.0098,-0.0263,178,330,228,352,0.00,0.01,2.61,0.18,0.0604,1,1,0,0.01,0.00,-0.02,0.00,0.00,0.00,0.17,211,31
3195,-0.2,1.1,39.3,-0.021,0.070,-1.053,4.1,-4.1,0.0,0.0046,-0.0044,-0.0236,222,309,254,304,0.00,0.01,2.60,0.18,0.0604,1,1,0,0.01,0.00,-0.02,0.00,0.00,0.00,0.16,211,31
3205,0.4,-3.6,-69.9,0.067,-0.051,-0.962,4.1,-4.2,0.0,0.0037,-0.0006,0.0561,371,175,389,163,0.00,0.01,2.60,0.18,0.0616,1,1,0,0.01,0.00,-0.02,0.00,0.00,0.00,0.17,211,31
3215,-0.3,4.8,26.3,0.006,-0.025,-1.018,4.1,-4.2,0.0,0.0043,-0.0091,-0.0289,194,320,245,338,0.00,0.01,2.61,0.18,0.0616,1,1,0,0.01,0.00,-0.02,0.00,0.00,0.00,0.18,211,31
3225,-0.5,1.2,42.3,-0.015,0.075,-1.048,4.1,-4.1,0.0,0.0048,-0.0053,-0.0312,206,324,243,324,0.00,0.01,2.60,0.18,0.0616,1,1,0,0.01,0.00,-0.02,0.00,0.00,0.00,0.19,211,31
3235,0.7,-2.8,-69.0,0.062,-0.044,-0.965,4.1,-4.2,0.0,0.0033,-0.0013,0.0555,371,173,389,165,0.00,0.01,2.60,0.18,0.0616,1,1,0,0.01,0.00,-0.02,0.00,0.00,0.00,0.21,210,31
3245,0.2,5.1,24.8,0.005,-0.032,-1.003,4.1,-4.2,0.0,0.0038,-0.0094,-0.0276,199,319,249,339,0.00,0.01,2.61,0.18,0.0628,1,1,0,0.01,0.00,-0.02,0.00,0.00,0.00,0.19,209,31
3255,-0.5,1.2,44.4,-0.020,0.072,-1.058,4.1,-4.1,0.0,0.0047,-0.0053,-0.0329,206,329,242,330,0.00,0.01,2.60,0.18,0.0628,1,1,0,0.01,0.00,-0.02,0.00,0.00,0.00,0.17,209,31
3265,0.4,-2.8,-68.9,0.066,-0.050,-0.972,4.1,-4.2,0.0,0.0036,-0.0014,0.0555,387,188,406,181,0.00,0.01,2.60,0.18,0.0701,1,1,0,0.01,0.00,-0.02,0.00,0.00,0.00,0.19,209,31
3275,0.2,4.9,21.7,0.011,-0.019,-1.009,4.1,-4.2,0.0,0.0040,-0.0095,-0.0254,217,328,268,349,0.00,0.01,2.61,0.18,0.0701,1,1,0,0.01,0.00,-0.02,0.00,0.00,0.00,0.20,209,31
3286,0.0,1.3,48.2,-0.019,0.083,-1.059,4.1,-4.1,0.0,0.0041,-0.0055,-0.0382,242,370,277,370,0.00,0.01,2.60,0.18,0.0829,1,1,0,0.01,0.00,-0.01,0.00,0.00,0.00,0.20,209,31
3296,0.1,-2.8,-68.4,0.059,-0.053,-0.975,4.1,-4.2,0.0,0.0039,-0.0016,0.0564,411,212,432,204,0.00,0.01,2.60,0.18,0.0829,1,1,0,0.01,0.00,0.00,0.01,0.00,0.00,0.19,210,31
3306,0.2,4.9,15.4,0.016,-0.024,-1.015,4.1,-4.2,0.0,0.0039,-0.0092,-0.0120,260,363,311,385,0.00,0.01,2.61,0.18,0.0909,1,1,0,0.01,0.00,0.00,0.01,0.00,0.00,0.18,210,31
3316,0.3,1.7,49.8,-0.021,0.079,-1.055,4.1,-4.1,0.0,0.0039,-0.0059,-0.0395,245,393,281,400,0.00,0.01,2.60,0.18,0.0909,1,1,0,0.01,0.00,0.00,0.01,0.00,0.00,0.17,210,31
3326,0.6,-2.9,-68.5,0.062,-0.039,-0.971,4.1,-4.2,0.0,0.0036,-0.0015,0.0568,427,226,447,218,0.00,0.01,2.60,0.18,0.0909,1,1,0,0.01,0.00,0.00,0.01,0.00,0.00,0.17,209,31
3336,-0.2,4.1,14.4,0.013,-0.043,-1.019,4.1,-4.2,0.0,0.0044,-0.0085,-0.0113,273,354,322,370,0.00,0.01,2.61,0.18,0.0909,1,1,0,0.01,0.00,0.00,0.01,0.00,0.00,0.17,209,31
3346,0.2,1.5,54.0,-0.020,0.080,-1.052,4.1,-4.1,0.0,0.0038,-0.0054,-0.0369,242,397,277,402,0.00,0.01,2.60,0.18,0.0909,1,1,0,0.01,0.00,0.00,0.01,0.00,0.00,0.17,209,31
3356,0.6,-3.0,-65.9,0.056,-0.039,-0.985,4.1,-4.2,0.0,0.0036,-0.0012,0.0531,425,229,445,220,0.00,0.01,2.60,0.18,0.0909,1,1,0,0.01,0.00,0.00,0.01,0.00,0.00,0.18,209,31
3366,-0.5,4.0,12.3,0.020,-0.037,-0.999,4.1,-4.2,0.0,0.0048,-0.0084,-0.0096,277,354,328,368,0.00,0.01,2.61,0.18,0.0921,1,1,0,0.01,0.00,0.00,0.01,0.00,0.00,0.18,209,31
3376,0.1,1.8,55.5,-0.018,0.084,-1.065,4.1,-4.1,0.0,0.0038,-0.0059,-0.0383,241,401,278,408,0.00,0.01,2.60,0.18,0.0921,1,1,0,0.01,0.00,0.00,0.01,0.00,0.00,0.18,209,31
3386,1.0,-3.0,-65.8,0.052,-0.049,-0.984,4.1,-4.2,0.0,0.0031,-0.0012,0.0529,429,229,447,224,0.00,0.01,2.60,0.18,0.0921,1,1,0,0.01,0.00,0.00,0.01,0.00,0.00,0.17,209,31
3397,-0.2,4.7,9.8,0.016,-0.031,-1.013,4.1,-4.2,0.0,0.0045,-0.0091,-0.0076,280,348,333,367,0.00,0.01,2.61,0.18,0.0921,1,1,0,0.01,0.00,0.00,0.01,0.00,0.00,0.16,209,31
3407,-0.4,1.4,55.2,-0.031,0.093,-1.076,4.1,-4.1,0.0,0.0047,-0.0056,-0.0421,280,371,310,366,0.00,0.01,2.60,0.18,0.0921,1,1,0,0.01,0.00,0.00,0.01,0.00,0.00,0.17,210,31
3417,0.7,-3.7,-64.0,0.052,-0.028,-0.977,4.1,-4.2,0.0,0.0034,-0.0005,0.0515,429,231,446,222,0.00,0.01,2.60,0.18,0.0921,1,1,0,0.01,0.00,0.00,0.01,0.00,0.00,0.18,209,31
3427,-0.5,4.3,7.5,0.024,-0.040,-1.006,4.1,-4.2,0.0,0.0048,-0.0087,-0.0058,252,376,306,394,0.00,0.01,2.61,0.18,0.0921,1,1,0,0.01,0.00,0.00,0.01,0.00,0.00,0.18,209,31
3437,-0.8,1.6,55.4,-0.024,0.091,-1.068,4.1,-4.1,0.0,0.0051,-0.0059,-0.0423,256,387,295,390,0.00,0.01,2.60,0.18,0.0921,1,1,0,0.01,0.00,0.00,0.01,0.00,0.00,0.18,209,31
3447,0.8,-4.0,-63.5,0.064,-0.042,-0.987,4.1,-4.2,0.0,0.0034,-0.0002,0.0511,432,231,446,223,0.00,0.01,2.60,0.18,0.0927,1,1,0,0.01,0.00,0.00,0.01,0.00,0.00,0.18,209,31
3457,0.3,3.8,2.9,0.028,-0.039,-0.999,4.1,-4.2,0.0,0.0040,-0.0088,-0.0109,257,375,306,395,0.00,0.01,2.61,0.18,0.0927,1,1,0,0.01,0.00,0.00,0.02,0.00,0.00,0.17,209,31
3467,0.1,1.6,59.2,-0.022,0.099,-1.063,4.1,-4.1,0.0,0.0042,-0.0061,-0.0438,255,390,292,396,0.00,0.01,2.60,0.18,0.0927,1,1,0,0.01,0.00,0.00,0.01,0.00,0.00,0.19,209,31
3477,0.4,-3.3,-62.3,0.048,-0.027,-0.987,4.1,-4.2,0.0,0.0037,-0.0009,0.0502,429,232,448,224,0.00,0.01,2.60,0.18,0.0927,1,1,0,0.01,0.00,0.00,0.01,0.00,0.00,0.22,210,31
3487,-0.2,3.1,1.5,0.028,-0.048,-1.010,4.1,-4.2,0.0,0.0044,-0.0081,-0.0095,272,366,321,383,0.00,0.01,2.61,0.18,0.0939,1,1,0,0.01,0.00,0.00,0.01,0.00,0.00,0.20,210,31
3497,-0.2,2.1,60.4,-0.026,0.081,-1.064,4.1,-4.1,0.0,0.0045,-0.0064,-0.0480,252,396,294,400,0.00,0.01,2.60,0.18,0.0939,1,1,0,0.01,0.00,0.00,0.02,0.00,0.00,0.18,210,31
3508,0.2,-3.2,-60.7,0.038,-0.021,-0.987,4.1,-4.2,0.0,0.0040,-0.0011,0.0503,431,235,451,224,0.00,0.01,2.60,0.18,0.0939,1,1,0,0.01,0.00,0.00,0.01,0.00,0.00,0.18,210,31
3518,-0.3,2.6,-3.1,0.034,-0.053,-1.009,4.1,-4.2,0.0,0.0047,-0.0070,0.0027,273,366,320,382,0.00,0.01,2.61,0.18,0.0939,1,1,0,0.01,0.00,0.00,0.02,0.00,0.00,0.18,210,31
3528,-0.1,2.2,61.0,-0.025,0.095,-1.061,4.1,-4.1,0.0,0.0043,-0.0067,-0.0441,280,400,316,406,0.00,0.01,2.60,0.18,0.1018,1,1,0,0.01,0.00,0.00,0.02,0.00,0.00,0.17,210,31
3538,0.4,-3.3,-56.9,0.033,-0.034,-0.986,4.1,-4.2,0.0,0.0039,-0.0010,0.0458,442,251,464,245,0.00,0.01,2.60,0.18,0.1018,1,1,0,0.01,0.00,0.00,0.02,0.00,0.00,0.17,210,31
3548,-0.2,2.6,-7.8,0.030,-0.039,-1.001,4.1,-4.2,0.0,0.0046,-0.0081,-0.0019,288,377,341,395,0.00,0.01,2.61,0.18,0.1018,1,1,0,0.01,0.00,0.00,0.02,0.00,0.00,0.17,210,31
3558,0.2,1.2,63.3,-0.028,0.096,-1.077,4.1,-4.1,0.0,0.0041,-0.0055,-0.0503,260,420,299,423,0.00,0.01,2.60,0.18,0.1018,1,1,0,0.01,0.00,0.00,0.02,0.00,0.00,0.18,210,31
3568,0.0,-4.1,-57.6,0.043,-0.029,-1.000,4.1,-4.2,0.0,0.0042,-0.0002,0.0464,444,251,466,241,0.00,0.01,2.60,0.18,0.1018,1,1,0,0.01,0.00,0.00,0.02,0.00,0.00,0.20,210,31
3578,0.0,2.7,-8.1,0.032,-0.049,-0.988,4.1,-4.2,0.0,0.0042,-0.0075,0.0039,301,366,350,385,0.00,0.01,2.61,0.18,0.1018,1,1,0,0.01,0.00,0.00,0.01,0.00,0.00,0.22,211,31
3588,0.0,1.7,65.0,-0.030,0.083,-1.074,4.1,-4.1,0.0,0.0044,-0.0061,-0.0517,257,421,297,427,0.00,0.01,2.60,0.18,0.1018,1,1,0,0.01,0.00,0.00,0.01,0.00,0.00,0.20,211,31
3599,0.1,-4.0,-55.7,0.036,-0.016,-0.981,4.1,-4.2,0.0,0.0040,-0.0009,0.0500,444,251,464,243,0.00,0.01,2.60,0.18,0.1018,1,1,0,0.01,0.00,-0.01,0.00,0.00,0.00,0.17,211,31
3609,-0.3,2.2,-14.1,0.030,-0.060,-1.007,4.1,-4.2,0.0,0.0047,-0.0067,0.0115,303,365,351,382,0.00,0.01,2.61,0.18,0.1018,1,1,0,0.01,0.00,-0.01,0.01,0.00,0.00,0.19,211,31
3619,0.2,2.2,67.1,-0.026,0.106,-1.071,4.1,-4.1,0.0,0.0044,-0.0067,-0.0499,247,429,289,436,0.00,0.01,2.60,0.18,0.1018,1,1,0,0.01,0.00,-0.01,0.00,0.00,0.00,0.21,211,31
3629,0.5,-4.1,-55.5,0.032,-0.025,-0.987,4.1,-4.2,0.0,0.0037,-0.0004,0.0466,444,252,463,242,0.00,0.01,2.60,0.19,0.1018,1,1,0,0.01,0.00,-0.01,0.00,0.00,0.00,0.20,210,31
3639,-0.4,2.5,-14.8,0.033,-0.052,-1.023,4.1,-4.2,0.0,0.0048,-0.0070,0.0121,316,353,364,369,0.00,0.01,2.61,0.19,0.1018,1,1,0,0.01,0.00,-0.01,0.00,0.00,0.00,0.19,210,31
3649,0.2,1.9,68.8,-0.024,0.103,-1.067,4.1,-4.1,0.0,0.0041,-0.0062,-0.0537,246,433,285,439,0.00,0.01,2.60,0.19,0.1018,1,1,0,0.01,0.00,-0.01,0.00,0.00,0.00,0.18,210,31
3659,0.2,-3.7,-55.1,0.038,-0.033,-0.998,4.1,-4.2,0.0,0.0040,-0.0008,0.0463,444,252,464,242,0.00,0.01,2.60,0.19,0.1018,1,1,0,0.01,0.00,-0.01,0.00,0.00,0.00,0.17,211,31
3669,-0.9,1.0,-20.0,0.050,-0.058,-1.010,4.1,-4.2,0.0,0.0053,-0.0060,0.0134,335,371,385,385,0.00,0.01,2.61,0.19,0.1116,1,1,0,0.01,0.00,-0.01,0.00,0.00,0.00,0.16,211,31
3679,0.1,1.6,68.8,-0.020,0.093,-1.080,4.1,-4.1,0.0,0.0043,-0.0064,-0.0517,261,452,303,460,0.00,0.01,2.60,0.19,0.1116,1,1,0,0.01,0.00,-0.01,0.00,0.00,0.00,0.16,211,31
3689,0.4,-3.1,-51.2,0.026,-0.015,-0.995,4.1,-4.2,0.0,0.0039,-0.0012,0.0413,456,275,478,266,0.00,0.01,2.60,0.18,0.1116,1,1,0,0.01,0.00,-0.01,0.00,0.00,0.00,0.17,211,31
3700,-0.8,1.0,-25.8,0.046,-0.057,-1.005,4.1,-4.2,0.0,0.0052,-0.0055,0.0209,339,367,388,381,0.00,0.01,2.61,0.18,0.1116,1,1,0,0.01,0.00,-0.01,0.00,0.00,0.00,0.19,211,31
3710,0.0,2.1,70.2,-0.027,0.099,-1.073,4.1,-4.1,0.0,0.0044,-0.0066,-0.0559,261,453,300,461,0.00,0.01,2.60,0.18,0.1116,1,1,0,0.01,0.00,-0.01,0.00,0.00,0.00,0.20,211,31
3720,0.5,-4.1,-47.3,0.023,-0.020,-0.989,4.1,-4.2,0.0,0.0037,-0.0006,0.0447,457,277,475,266,0.00,0.01,2.60,0.19,0.1116,1,1,0,0.01,0.00,-0.01,0.00,0.00,0.00,0.18,211,31
3730,-0.3,1.1,-27.5,0.044,-0.049,-1.007,4.1,-4.2,0.0,0.0047,-0.0057,0.0223,340,364,392,379,0.00,0.01,2.60,0.19,0.1116,1,1,0,0.01,0.00,-0.01,0.00,0.00,0.00,0.16,211,31
3740,0.0,1.0,70.9,-0.019,0.115,-1.082,4.1,-4.1,0.0,0.0044,-0.0054,-0.0564,254,462,292,467,0.00,0.01,2.60,0.18,0.1116,1,1,0,0.01,0.00,-0.01,0.00,0.00,0.00,0.17,210,31
3750,0.8,-4.8,-46.9,0.021,-0.023,-0.999,4.1,-4.2,0.0,0.0033,-0.0001,0.0446,458,276,475,267,0.00,0.01,2.60,0.18,0.1116,1,1,0,0.01,0.00,-0.01,0.00,0.00,0.00,0.18,210,31
3760,-0.4,1.7,-24.7,0.040,-0.055,-1.006,4.1,-4.2,0.0,0.0048,-0.0066,0.0171,342,364,392,378,0.00,0.01,2.60,0.18,0.1116,1,1,0,0.01,0.00,-0.01,0.00,0.00,0.00,0.18,210,31
3770,0.0,1.9,71.4,-0.030,0.096,-1.088,4.1,-4.1,0.0,0.0043,-0.0064,-0.0568,253,463,294,470,0.00,0.01,2.60,0.18,0.1122,1,1,0,0.01,0.00,-0.01,0.00,0.00,0.00,0.18,210,31
3780,0.7,-5.1,-46.1,0.027,-0.007,-0.994,4.1,-4.1,0.0,0.0037,0.0000,0.0440,458,279,475,268,0.00,0.01,2.60,0.19,0.1122,1,1,0,0.01,0.00,-0.01,0.00,0.00,0.00,0.18,210,31
3790,-0.7,1.5,-29.2,0.043,-0.063,-0.996,4.1,-4.2,0.0,0.0052,-0.0060,0.0236,357,352,406,365,0.00,0.01,2.60,0.18,0.1122,1,1,0,0.01,0.00,-0.01,0.00,0.00,0.00,0.17,210,31
3800,-0.1,2.1,71.6,-0.026,0.090,-1.075,4.1,-4.1,0.0,0.0046,-0.0065,-0.0569,251,464,294,471,0.00,0.01,2.60,0.18,0.1122,1,1,0,0.01,0.00,-0.01,0.00,0.00,0.00,0.18,210,31
3810,0.8,-4.9,-47.7,0.021,-0.013,-0.999,4.1,-4.1,0.0,0.0036,0.0004,0.0384,456,281,473,270,0.00,0.01,2.60,0.18,0.1122,1,1,0,0.01,0.00,-0.01,0.00,0.00,0.00,0.19,210,31
3820,-0.4,1.5,-23.6,0.047,-0.056,-1.005,4.1,-4.2,0.0,0.0049,-0.0060,0.0192,361,351,407,361,0.00,0.01,2.61,0.18,0.1122,1,1,0,0.01,0.00,-0.01,0.00,0.00,0.00,0.19,210,31
3830,0.0,1.4,70.0,-0.030,0.109,-1.076,4.1,-4.1,0.0,0.0044,-0.0059,-0.0557,253,466,292,470,0.00,0.01,2.60,0.18,0.1122,1,1,0,0.01,0.00,-0.01,0.00,0.00,0.00,0.18,210,31
3840,0.5,-4.4,-52.1,0.026,-0.026,-0.988,4.1,-4.1,0.0,0.0038,0.0000,0.0420,455,282,472,271,0.00,0.01,2.60,0.18,0.1122,1,1,0,0.01,0.00,-0.01,0.00,0.00,0.00,0.18,211,31
3850,-0.5,1.7,-17.3,0.038,-0.046,-1.012,4.1,-4.2,0.0,0.0050,-0.0063,0.0141,363,351,408,359,0.00,0.01,2.61,0.18,0.1122,1,1,0,0.01,0.00,-0.01,0.00,0.00,0.00,0.17,211,31
3860,0.0,1.3,69.1,-0.024,0.098,-1.077,4.1,-4.1,0.0,0.0045,-0.0060,-0.0541,253,467,295,474,0.00,0.01,2.60,0.18,0.1134,1,1,0,0.01,0.00,-0.01,0.00,0.00,0.00,0.17,211,31
3870,0.4,-4.0,-53.9,0.038,-0.018,-1.006,4.1,-4.1,0.0,0.0039,-0.0005,0.0454,450,293,467,280,0.00,0.01,2.60,0.18,0.1134,1,1,0,0.01,0.00,-0.01,0.00,0.00,0.00,0.16,211,31
3880,-0.2,2.4,-15.3,0.040,-0.052,-0.996,4.1,-4.2,0.0,0.0046,-0.0073,0.0095,368,349,413,360,0.00,0.01,2.61,0.18,0.1134,1,1,0,0.01,0.00,-0.01,0.00,0.00,0.00,0.17,211,31
3890,0.1,1.8,67.2,-0.021,0.093,-1.087,4.1,-4.1,0.0,0.0043,-0.0063,-0.0524,278,444,318,450,0.00,0.01,2.60,0.18,0.1134,1,1,0,0.01,0.00,-0.01,0.00,0.00,0.00,0.18,210,31
3901,0.6,-3.5,-56.0,0.036,-0.029,-0.978,4.1,-4.1,0.0,0.0038,-0.0009,0.0451,449,292,467,282,0.00,0.01,2.60,0.18,0.1134,1,1,0,0.01,0.00,-0.01,0.00,0.00,0.00,0.18,210,31
3911,-0.8,2.2,-15.3,0.041,-0.056,-1.010,4.1,-4.2,0.0,0.0054,-0.0079,0.0035,306,403,361,419,0.00,0.01,2.61,0.18,0.1134,1,1,0,0.01,0.00,-0.01,0.00,0.00,0.00,0.18,210,31
3921,0.2,1.1,68.0,-0.026,0.105,-1.075,4.1,-4.1,0.0,0.0042,-0.0056,-0.0541,272,451,312,459,0.00,0.01,2.60,0.18,0.1140,1,1,0,0.01,0.00,-0.01,0.00,0.00,0.00,0.17,210,31
3931,0.6,-4.0,-52.4,0.025,-0.025,-1.015,4.1,-4.1,0.0,0.0037,-0.0006,0.0442,468,273,488,265,0.00,0.01,2.60,0.18,0.1140,1,1,0,0.01,0.00,-0.01,0.00,0.00,0.00,0.19,210,31
3941,-0.2,2.2,-15.5,0.036,-0.049,-0.992,4.1,-4.2,0.0,0.0046,-0.0071,0.0097,333,382,383,396,0.00,0.01,2.61,0.18,0.1140,1,1,0,0.01,0.00,-0.01,0.00,0.00,0.00,0.21,210,31
3951,0.0,1.9,68.1,-0.024,0.093,-1.085,4.1,-4.1,0.0,0.0044,-0.0064,-0.0542,272,454,311,457,0.00,0.01,2.60,0.18,0.1140,1,1,0,0.01,0.00,-0.01,0.00,0.00,0.00,0.20,210,31
3961,0.4,-5.0,-51.5,0.031,-0.024,-0.988,4.1,-4.1,0.0,0.0041,0.0000,0.0472,467,282,485,270,0.00,0.01,2.60,0.18,0.1153,1,1,0,0.01,0.00,0.00,0.00,0.00,0.00,0.18,210,31
3971,-0.5,1.8,-17.5,0.040,-0.056,-1.012,4.1,-4.2,0.0,0.0050,-0.0068,0.0114,338,380,389,396,0.00,0.01,2.60,0.18,0.1153,1,1,0,0.01,0.00,0.00,0.00,0.00,0.00,0.18,211,31
3981,0.1,1.6,68.2,-0.034,0.091,-1.071,4.1,-4.1,0.0,0.0043,-0.0061,-0.0542,290,470,329,478,0.00,0.01,2.60,0.18,0.1238,1,1,0,0.01,0.00,0.00,0.00,0.00,0.00,0.17,211,31
3991,0.5,-4.8,-50.9,0.027,-0.011,-1.007,4.1,-4.1,0.0,0.0040,-0.0002,0.0470,482,297,502,287,0.00,0.01,2.60,0.18,0.1238,1,1,0,0.01,0.00,0.00,0.00,0.00,0.00,0.17,211,31
4002,0.0,1.2,-22.2,0.043,-0.044,-0.993,4.2,-4.2,0.0,0.0045,-0.0058,0.0180,377,418,430,435,0.00,0.01,2.60,0.18,0.1360,1,1,0,0.01,0.00,0.00,0.00,0.00,0.00,0.16,211,31
4012,0.3,1.5,70.3,-0.028,0.112,-1.088,4.1,-4.1,0.0,0.0043,-0.0062,-0.0535,304,502,343,511,0.00,0.01,2.60,0.18,0.1360,1,1,0,0.01,0.00,0.00,0.00,0.00,0.00,0.17,211,31
4022,0.7,-5.1,-48.1,0.014,-0.034,-0.992,4.1,-4.1,0.0,0.0037,0.0006,0.0388,507,319,525,309,0.00,0.01,2.60,0.18,0.1360,1,1,0,0.01,0.00,0.00,0.00,0.00,0.00,0.18,210,31
4032,-0.7,0.7,-27.0,0.044,-0.056,-1.009,4.2,-4.2,0.0,0.0052,-0.0066,0.0133,392,407,443,418,0.00,0.01,2.60,0.18,0.1360,1,1,0,0.01,0.00,0.00,0.00,0.00,0.00,0.19,210,31
4042,0.0,0.8,71.5,-0.022,0.104,-1.068,4.1,-4.1,0.0,0.0045,-0.0053,-0.0562,303,505,341,511,0.00,0.01,2.60,0.18,0.1360,1,1,0,0.01,0.00,0.00,0.00,0.00,0.00,0.20,211,31
4052,0.4,-3.7,-47.6,0.020,-0.021,-1.016,4.1,-4.1,0.0,0.0040,-0.0007,0.0384,505,319,526,310,0.00,0.01,2.60,0.18,0.1360,1,1,0,0.01,0.00,0.00,0.00,0.00,0.00,0.19,211,31
4062,-0.5,0.7,-28.2,0.048,-0.059,-0.989,4.2,-4.2,0.0,0.0049,-0.0065,0.0142,395,405,443,417,0.00,0.01,2.60,0.18,0.1360,1,1,0,0.01,0.00,0.00,0.00,0.00,0.00,0.17,211,31
4072,-0.3,1.3,71.7,-0.025,0.094,-1.083,4.1,-4.1,0.0,0.0048,-0.0059,-0.0571,301,505,342,513,0.00,0.01,2.60,0.18,0.1360,1,1,0,0.01,0.00,0.00,0.00,0.00,0.00,0.18,211,31
4082,0.4,-4.1,-41.9,0.020,-0.014,-1.013,4.1,-4.1,0.0,0.0041,-0.0005,0.0363,499,329,519,319,0.00,0.01,2.60,0.18,0.1366,1,1,0,0.01,0.00,0.00,0.00,0.00,0.00,0.20,211,31
4092,-0.6,0.8,-31.1,0.041,-0.054,-0.987,4.2,-4.2,0.0,0.0052,-0.0059,0.0225,400,401,451,413,0.00,0.01,2.60,0.18,0.1366,1,1,0,0.01,0.00,0.00,0.00,0.00,0.00,0.20,211,31
4103,-0.3,1.0,72.5,-0.021,0.097,-1.067,4.1,-4.1,0.0,0.0049,-0.0055,-0.0565,313,532,353,536,0.00,0.01,2.60,0.18,0.1458,1,1,0,0.01,0.00,0.00,0.00,0.00,0.00,0.19,211,31
4113,0.8,-4.3,-42.2,0.008,-0.024,-1.022,4.1,-4.1,0.0,0.0036,-0.0001,0.0366,519,346,535,334,0.00,0.01,2.60,0.18,0.1458,1,1,0,0.01,0.00,0.00,0.00,0.00,0.00,0.18,210,31
4123,-1.0,0.5,-34.8,0.044,-0.068,-0.980,4.1,-4.2,0.0,0.0056,-0.0052,0.0281,418,419,467,430,0.00,0.01,2.60,0.18,0.1458,1,1,0,0.01,0.00,0.00,0.00,0.00,0.00,0.17,209,31
4133,0.4,1.5,73.2,-0.019,0.098,-1.077,4.1,-4.1,0.0,0.0041,-0.0061,-0.0580,312,530,352,539,0.00,0.01,2.60,0.18,0.1458,1,1,0,0.01,0.00,0.00,0.00,0.00,0.00,0.16,209,31
4143,0.6,-4.8,-41.6,0.015,-0.016,-1.014,4.1,-4.1,0.0,0.0037,-0.0002,0.0411,518,345,535,336,0.00,0.01,2.60,0.18,0.1458,1,1,0,0.01,0.00,0.00,0.00,0.00,0.00,0.16,209,31
4153,-0.2,0.9,-35.1,0.047,-0.064,-0.990,4.1,-4.2,0.0,0.0048,-0.0055,0.0283,418,416,469,430,0.00,0.01,2.60,0.18,0.1458,1,1,0,0.01,0.00,0.00,0.00,0.00,0.00,0.17,209,31
4163,0.0,1.8,72.0,-0.020,0.104,-1.065,4.1,-4.1,0.0,0.0047,-0.0064,-0.0573,316,528,358,531,0.00,0.01,2.60,0.18,0.1458,1,1,0,0.01,0.00,0.00,0.00,0.00,0.00,0.18,209,31
4173,0.0,-4.8,-39.5,0.019,-0.014,-1.011,4.1,-4.1,0.0,0.0045,0.0000,0.0395,514,351,533,335,0.00,0.01,2.60,0.18,0.1458,1,1,0,0.01,0.00,0.00,0.00,0.00,0.00,0.18,210,31
4183,-0.4,0.6,-35.6,0.042,-0.058,-0.992,4.1,-4.2,0.0,0.0050,-0.0053,0.0288,432,406,480,415,0.00,0.01,2.60,0.18,0.1458,1,1,0,0.01,0.00,0.00,0.00,0.00,0.00,0.17,210,31
4193,-0.1,2.3,71.9,-0.026,0.093,-1.067,4.1,-4.1,0.0,0.0047,-0.0069,-0.0572,311,530,355,538,0.00,0.01,2.60,0.18,0.1458,1,1,0,0.01,0.00,0.00,0.00,0.00,0.00,0.16,210,31
4203,0.5,-3.8,-38.1,0.009,-0.010,-0.996,4.1,-4.1,0.0,0.0039,-0.0007,0.0334,514,349,530,341,0.00,0.01,2.60,0.18,0.1458,1,1,0,0.01,0.00,0.00,0.00,0.00,0.00,0.17,209,31
4214,-0.4,0.0,-37.2,0.056,-0.053,-0.991,4.1,-4.2,0.0,0.0050,-0.0046,0.0300,436,404,482,412,0.00,0.01,2.60,0.18,0.1458,1,1,0,0.01,0.00,0.00,0.00,0.00,0.00,0.18,209,31
4224,0.6,1.2,72.2,-0.031,0.112,-1.092,4.1,-4.1,0.0,0.0043,-0.0059,-0.0567,311,532,353,538,0.00,0.01,2.60,0.18,0.1458,1,1,0,0.01,0.00,0.00,0.00,0.00,0.00,0.18,209,31
4234,0.2,-5.6,-35.1,0.005,-0.019,-1.006,4.1,-4.1,0.0,0.0044,0.0010,0.0284,509,361,521,343,0.00,0.01,2.60,0.18,0.1458,1,1,0,0.01,0.00,0.00,0.00,0.00,0.00,0.19,209,31
4244,-1.0,0.2,-37.0,0.046,-0.069,-0.967,4.1,-4.2,0.0,0.0057,-0.0049,0.0299,437,405,484,413,0.00,0.01,2.60,0.18,0.1464,1,1,0,0.01,0.00,0.00,0.00,0.00,0.00,0.18,210,31
4254,0.4,1.4,72.1,-0.015,0.101,-1.075,4.1,-4.1,0.0,0.0040,-0.0060,-0.0567,313,532,352,541,0.00,0.01,2.60,0.18,0.1464,1,1,0,0.01,0.00,0.00,0.00,0.00,0.00,0.17,210,31
4264,0.2,-4.7,-34.5,0.012,-0.004,-1.018,4.1,-4.1,0.0,0.0044,0.0001,0.0279,505,362,525,347,0.00,0.01,2.60,0.18,0.1464,1,1,0,0.01,0.00,0.00,0.00,0.00,0.00,0.19,210,31
4274,-0.1,0.5,-36.8,0.040,-0.059,-0.988,4.1,-4.2,0.0,0.0047,-0.0052,0.0297,437,404,483,414,0.00,0.01,2.60,0.18,0.1464,1,1,0,0.01,0.00,0.00,0.00,0.00,0.00,0.21,210,31
4284,0.3,1.1,72.1,-0.018,0.099,-1.063,4.1,-4.1,0.0,0.0044,-0.0058,-0.0573,312,534,353,539,0.00,0.01,2.60,0.18,0.1464,1,1,0,0.01,0.00,0.00,0.00,0.00,0.00,0.20,210,31
4294,0.0,-4.4,-33.1,-0.004,-0.006,-1.007,4.1,-4.1,0.0,0.0046,-0.0001,0.0268,505,363,523,348,0.00,0.01,2.60,0.18,0.1464,1,1,0,0.01,0.00,0.00,0.00,0.00,0.00,0.18,210,31
4304,-0.9,-1.2,-42.5,0.057,-0.056,-0.979,4.1,-4.2,0.0,0.0055,-0.0047,0.0268,442,402,486,408,0.00,0.01,2.60,0.18,0.1464,1,1,0,0.01,0.00,0.00,0.00,0.00,0.00,0.18,210,31
4314,0.3,2.4,71.8,-0.028,0.097,-1.051,4.1,-4.1,0.0,0.0043,-0.0070,-0.0572,309,535,350,545,0.00,0.01,2.61,0.18,0.1464,1,1,0,0.01,0.00,0.00,0.00,0.00,0.00,0.17,210,31
4325,0.6,-3.7,-28.5,0.000,-0.002,-1.003,4.1,-4.1,0.0,0.0036,-0.0009,0.0316,507,363,524,353,0.00,0.01,2.60,0.18,0.1476,1,1,0,0.01,0.00,0.00,0.00,0.00,0.00,0.16,209,31
4335,-0.4,-0.9,-45.8,0.051,-0.059,-0.993,4.2,-4.2,0.0,0.0053,-0.0045,0.0323,444,404,491,409,0.00,0.01,2.60,0.18,0.1476,1,1,0,0.01,0.00,0.00,0.00,0.00,0.00,0.16,209,31
4345,0.6,1.8,72.3,-0.027,0.106,-1.066,4.1,-4.1,0.0,0.0040,-0.0064,-0.0575,312,540,350,546,0.00,0.01,2.60,0.18,0.1476,1,1,0,0.01,0.00,0.00,0.00,0.00,0.00,0.17,209,31
4355,0.0,-4.7,-27.2,-0.004,-0.009,-1.018,4.1,-4.1,0.0,0.0047,0.0000,0.0308,505,368,523,352,0.00,0.01,2.60,0.18,0.1476,1,1,0,0.01,0.00,0.00,0.00,0.00,0.00,0.17,209,31
4365,-0.9,-0.2,-46.8,0.044,-0.055,-0.972,4.2,-4.2,0.0,0.0056,-0.0045,0.0377,444,400,495,409,0.00,0.01,2.60,0.18,0.1476,1,1,0,0.01,0.00,0.00,0.00,0.00,0.00,0.18,210,31
4375,0.3,0.7,71.8,-0.020,0.095,-1.069,4.1,-4.1,0.0,0.0043,-0.0053,-0.0575,310,542,349,546,0.00,0.01,2.61,0.18,0.1476,1,1,0,0.01,0.00,0.00,0.00,0.00,0.00,0.19,210,31
4385,0.3,-5.2,-26.1,0.000,0.005,-0.995,4.1,-4.1,0.0,0.0040,0.0005,0.0299,512,393,525,377,0.00,0.01,2.60,0.18,0.1555,1,1,0,0.01,0.00,0.00,0.00,0.00,0.00,0.18,210,31
4395,-0.2,-0.6,-47.5,0.053,-0.061,-1.001,4.2,-4.2,0.0,0.0049,-0.0040,0.0382,474,405,517,411,0.00,0.01,2.60,0.18,0.1555,1,1,0,0.01,0.00,0.00,0.00,0.00,0.00,0.16,210,31
4405,0.7,1.5,72.6,-0.026,0.096,-1.061,4.2,-4.1,0.0,0.0041,-0.0060,-0.0582,323,558,364,562,0.00,0.01,2.61,0.18,0.1555,1,1,0,0.01,0.00,0.00,0.00,0.00,0.00,0.19,210,31
4415,0.1,-4.4,-26.9,-0.011,-0.009,-0.999,4.1,-4.1,0.0,0.0043,0.0000,0.0305,512,392,528,376,0.00,0.01,2.60,0.18,0.1555,1,1,0,0.01,0.00,0.00,0.00,0.00,0.00,0.21,210,31
4425,-1.1,-0.9,-47.5,0.053,-0.063,-0.976,4.2,-4.2,0.0,0.0059,-0.0037,0.0382,495,428,537,426,0.00,0.01,2.60,0.18,0.1659,1,1,0,0.01,0.00,0.00,0.00,0.00,0.00,0.20,210,31
4436,0.4,2.1,70.6,-0.024,0.107,-1.048,4.2,-4.1,0.0,0.0043,-0.0067,-0.0566,343,576,386,582,0.00,0.01,2.61,0.18,0.1659,1,1,0,0.01,0.00,0.00,0.00,0.00,0.00,0.18,210,31
4446,0.3,-4.2,-25.9,-0.008,-0.001,-1.008,4.1,-4.1,0.0,0.0041,-0.0003,0.0240,530,412,545,399,0.00,0.01,2.60,0.18,0.1659,1,1,0,0.01,0.00,0.00,0.00,0.00,0.00,0.17,210,31
4456,-0.2,-0.4,-48.3,0.056,-0.060,-0.978,4.2,-4.2,0.0,0.0050,-0.0042,0.0389,496,423,538,428,0.00,0.01,2.60,0.18,0.1659,1,1,0,0.01,0.00,0.00,0.00,0.00,0.00,0.17,210,31
4466,1.1,2.8,72.0,-0.036,0.091,-1.087,4.2,-4.1,0.0,0.0038,-0.0072,-0.0581,341,575,383,587,0.00,0.01,2.61,0.18,0.1659,1,1,0,0.01,0.00,0.00,0.00,0.00,0.00,0.16,210,31
4476,0.0,-4.7,-26.1,0.000,0.005,-1.010,4.1,-4.1,0.0,0.0047,0.0001,0.0242,530,413,547,396,0.00,0.01,2.60,0.18,0.1659,1,1,0,0.01,0.00,0.00,0.00,0.00,0.00,0.16,210,31
4486,-0.2,-1.3,-47.6,0.054,-0.061,-0.991,4.2,-4.2,0.0,0.0050,-0.0034,0.0384,524,436,561,434,0.00,0.01,2.60,0.18,0.1751,1,1,0,0.01,0.00,0.00,0.00,0.00,0.00,0.16,210,31
4496,0.1,2.6,73.2,-0.030,0.090,-1.047,4.2,-4.1,0.0,0.0050,-0.0069,-0.0591,354,597,400,603,0.00,0.01,2.61,0.18,0.1751,1,1,0,0.01,0.00,0.00,0.00,0.00,0.00,0.17,210,31
4506,-0.3,-4.8,-22.2,0.015,-0.004,-1.003,4.1,-4.1,0.0,0.0047,0.0005,0.0241,549,431,562,413,0.00,0.01,2.60,0.18,0.1751,1,1,0,0.01,0.00,0.00,0.00,0.00,0.00,0.19,209,31
4516,-0.2,-0.6,-47.5,0.057,-0.067,-0.972,4.2,-4.2,0.0,0.0050,-0.0041,0.0383,523,434,563,435,0.00,0.01,2.60,0.18,0.1751,1,1,0,0.01,0.00,0.00,0.00,0.00,0.00,0.21,210,31
4526,-0.1,3.1,73.4,-0.030,0.099,-1.071,4.2,-4.1,0.0,0.0051,-0.0071,-0.0592,355,597,400,603,0.00,0.01,2.61,0.18,0.1751,1,1,0,0.01,0.00,0.00,0.00,0.00,0.00,0.19,209,31
4536,0.4,-5.8,-23.6,0.008,-0.009,-0.997,4.1,-4.1,0.0,0.0043,0.0011,0.0192,556,432,559,409,0.00,0.01,2.60,0.18,0.1751,1,1,0,0.01,0.00,0.00,0.00,0.00,0.00,0.16,210,31
4546,-0.3,0.6,-47.2,0.053,-0.053,-0.967,4.2,-4.2,0.0,0.0051,-0.0054,0.0381,520,433,565,438,0.00,0.01,2.60,0.18,0.1751,1,1,0,0.01,0.00,0.00,0.00,0.00,0.00,0.18,210,31
4557,0.2,2.6,72.1,-0.026,0.092,-1.067,4.2,-4.1,0.0,0.0045,-0.0073,-0.0574,358,597,400,600,0.00,0.01,2.61,0.18,0.1751,1,1,0,0.01,0.00,0.00,0.00,0.00,0.00,0.19,210,31
4567,-0.4,-6.1,-19.3,0.009,-0.006,-0.989,4.1,-4.1,0.0,0.0047,0.0022,0.0249,545,445,551,418,0.00,0.01,2.60,0.18,0.1757,1,1,0,0.01,0.00,0.00,0.00,0.00,0.00,0.19,210,31
4577,-0.5,0.0,-51.3,0.052,-0.055,-0.971,4.2,-4.2,0.0,0.0053,-0.0050,0.0392,524,432,567,436,0.00,0.01,2.60,0.18,0.1757,1,1,0,0.01,0.00,0.00,0.00,0.00,0.00,0.18,210,31
4587,-0.4,3.1,71.1,-0.033,0.079,-1.064,4.2,-4.1,0.0,0.0052,-0.0075,-0.0572,357,598,402,603,0.00,0.01,2.61,0.18,0.1757,1,1,0,0.01,0.00,0.00,0.00,0.00,0.00,0.17,209,31
4597,0.3,-5.6,-14.6,0.004,0.018,-0.995,4.1,-4.1,0.0,0.0041,0.0014,0.0182,543,444,550,422,0.00,0.01,2.60,0.18,0.1757,1,1,0,0.01,0.00,0.00,0.00,0.00,0.00,0.16,209,31
4607,-0.3,-0.5,-53.8,0.054,-0.057,-0.966,4.2,-4.2,0.0,0.0051,-0.0042,0.0433,537,428,577,426,0.00,0.01,2.60,0.18,0.1769,1,1,0,0.01,0.00,0.00,0.00,0.00,0.00,0.16,207,31
4617,-0.3,2.4,72.0,-0.025,0.096,-1.070,4.2,-4.1,0.0,0.0051,-0.0066,-0.0590,358,602,402,607,0.00,0.01,2.61,0.18,0.1769,1,1,0,0.01,0.00,0.00,0.00,0.00,0.00,0.17,207,31
4627,1.2,-4.9,-13.8,-0.012,0.010,-0.997,4.1,-4.1,0.0,0.0035,0.0001,0.0114,543,444,553,428,0.00,0.01,2.60,0.18,0.1769,1,1,0,0.01,0.00,0.00,0.00,0.00,0.00,0.17,208,31
4637,-0.6,-1.2,-53.9,0.054,-0.050,-0.963,4.2,-4.2,0.0,0.0054,-0.0036,0.0434,538,428,578,425,0.00,0.01,2.60,0.18,0.1769,1,1,0,0.01,0.00,0.00,0.00,0.00,0.00,0.17,208,31
4647,-0.2,2.1,70.8,-0.020,0.078,-1.059,4.1,-4.1,0.0,0.0049,-0.0065,-0.0582,373,613,415,618,0.00,0.01,2.61,0.18,0.1836,1,1,0,0.01,0.00,0.00,0.00,0.00,0.00,0.18,209,31
4658,-0.5,-3.3,-13.2,-0.021,0.000,-1.013,4.1,-4.1,0.0,0.0054,-0.0014,0.0109,548,458,571,444,0.00,0.01,2.60,0.18,0.1836,1,1,0,0.01,0.00,0.00,0.00,0.00,0.00,0.17,209,31
4668,-0.5,-1.3,-56.5,0.060,-0.052,-0.973,4.2,-4.2,0.0,0.0056,-0.0045,0.0398,551,439,593,437,0.00,0.01,2.60,0.18,0.1836,1,1,0,0.01,0.00,0.00,0.00,0.00,0.00,0.16,209,31
4678,0.0,2.5,70.8,-0.026,0.096,-1.047,4.2,-4.1,0.0,0.0049,-0.0071,-0.0571,371,613,417,618,0.00,0.01,2.61,0.18,0.1836,1,1,0,0.01,0.00,0.00,0.00,0.00,0.00,0.17,208,31
4688,-0.3,-2.8,-13.2,-0.014,0.012,-1.010,4.2,-4.1,0.0,0.0051,-0.0019,0.0109,536,466,561,456,0.00,0.01,2.60,0.18,0.1836,1,1,0,0.01,0.00,0.00,0.00,0.00,0.00,0.18,208,31
4698,-0.3,-1.8,-58.1,0.055,-0.049,-0.986,4.2,-4.2,0.0,0.0052,-0.0039,0.0409,555,437,593,435,0.00,0.01,2.60,0.18,0.1836,1,1,0,0.01,0.00,0.00,0.00,0.00,0.00,0.18,207,31
4708,0.2,2.3,68.8,-0.022,0.072,-1.043,4.2,-4.1,0.0,0.0045,-0.0071,-0.0547,374,610,417,618,0.00,0.01,2.61,0.18,0.1836,1,1,0,0.01,0.00,0.00,0.00,0.00,0.00,0.17,208,31
4718,0.3,-1.8,-10.5,-0.023,0.005,-1.018,4.1,-4.1,0.0,0.0044,-0.0029,0.0087,532,466,558,463,0.00,0.01,2.60,0.18,0.1836,1,1,0,0.01,0.00,0.00,0.00,0.00,0.00,0.16,208,31
4728,0.0,-1.8,-58.2,0.060,-0.065,-0.972,4.2,-4.2,0.0,0.0050,-0.0038,0.0413,557,436,593,434,0.00,0.01,2.60,0.18,0.1836,1,1,0,0.01,0.00,0.00,0.00,0.00,0.00,0.17,208,31
4738,0.1,1.9,68.9,-0.013,0.094,-1.041,4.2,-4.1,0.0,0.0046,-0.0067,-0.0548,374,612,417,617,0.00,0.01,2.61,0.18,0.1836,1,1,0,0.01,0.00,0.00,0.00,0.00,0.00,0.18,208,31
4769,0.4,1.9,68.5,-0.011,0.077,-1.043,4.2,-4.1,0.0,0.0044,-0.0067,-0.0545,378,614,421,620,0.00,0.01,2.61,0.18,0.1854,1,1,0,0.01,0.00,0.00,0.00,0.00,0.00,0.18,208,31
4779,0.0,-1.3,-5.9,-0.025,0.019,-1.011,4.1,-4.1,0.0,0.0042,-0.0031,0.0146,535,471,560,467,0.00,0.01,2.60,0.18,0.1854,1,1,0,0.01,0.00,0.00,0.00,0.00,0.00,0.17,208,31
4789,0.1,-1.1,-58.6,0.054,-0.051,-0.970,4.2,-4.1,0.0,0.0048,-0.0039,0.0454,569,431,605,428,0.00,0.01,2.60,0.18,0.1854,1,1,0,0.01,0.00,0.00,0.00,0.00,0.00,0.16,208,31
4799,0.0,2.3,68.7,-0.015,0.077,-1.036,4.2,-4.1,0.0,0.0049,-0.0071,-0.0547,375,615,422,621,0.00,0.01,2.61,0.17,0.1854,1,1,0,0.01,0.00,0.00,0.00,0.00,0.00,0.16,208,31
4809,-0.5,-0.9,-5.7,-0.032,0.012,-1.015,4.1,-4.1,0.0,0.0049,-0.0035,0.0145,520,483,552,478,0.00,0.01,2.60,0.17,0.1854,1,1,0,0.01,0.00,0.00,0.00,0.00,0.00,0.17,208,31
4819,-0.1,-0.9,-59.9,0.063,-0.059,-0.975,4.2,-4.1,0.0,0.0052,-0.0041,0.0464,570,429,608,426,0.00,0.01,2.60,0.17,0.1854,1,1,0,0.01,0.00,0.00,0.00,0.00,0.00,0.18,208,30
4829,0.1,2.2,68.9,-0.007,0.093,-1.040,4.1,-4.1,0.0,0.0047,-0.0071,-0.0549,375,615,420,622,0.00,0.01,2.61,0.17,0.1854,1,1,0,0.01,0.00,0.00,0.00,0.00,0.00,0.18,209,30
4839,-0.1,-0.3,-4.6,-0.035,0.004,-1.025,4.1,-4.1,0.0,0.0044,-0.0042,0.0136,518,483,550,482,0.00,0.01,2.60,0.17,0.1854,1,1,0,0.01,0.00,0.00,0.00,0.00,0.00,0.19,209,30
4849,0.3,-1.1,-60.0,0.062,-0.062,-0.984,4.2,-4.1,0.0,0.0046,-0.0039,0.0465,571,428,607,427,0.00,0.01,2.60,0.17,0.1854,1,1,0,0.01,0.00,0.00,0.00,0.00,0.00,0.18,209,30
4859,0.0,1.5,68.3,-0.003,0.079,-1.037,4.2,-4.1,0.0,0.0048,-0.0064,-0.0543,377,617,420,619,0.00,0.01,2.61,0.17,0.1854,1,1,0,0.01,0.00,0.00,0.00,0.00,0.00,0.16,210,30
4869,-1.4,-0.3,-5.0,-0.026,-0.004,-1.012,4.1,-4.1,0.0,0.0056,-0.0040,0.0138,519,487,555,481,0.00,0.01,2.60,0.17,0.1866,1,1,0,0.01,0.00,0.00,0.00,0.00,0.00,0.18,210,30
4879,0.0,-0.9,-61.2,0.057,-0.052,-0.981,4.2,-4.1,0.0,0.0049,-0.0038,0.0492,572,432,609,430,0.00,0.01,2.60,0.17,0.1866,1,1,0,0.01,0.00,0.00,0.00,0.00,0.00,0.20,210,30
4890,0.5,2.2,65.9,-0.011,0.071,-1.028,4.2,-4.1,0.0,0.0044,-0.0069,-0.0537,403,637,443,642,0.00,0.01,2.61,0.18,0.1976,1,1,0,0.01,0.00,0.00,0.00,0.00,0.00,0.19,210,31
4900,-1.0,-0.1,-0.8,-0.020,0.017,-0.992,4.1,-4.1,0.0,0.0059,-0.0046,0.0010,539,507,575,504,0.00,0.01,2.60,0.18,0.1976,1,1,0,0.01,0.00,0.00,0.00,0.00,0.00,0.18,210,31
4910,-0.2,0.2,-60.7,0.050,-0.062,-0.989,4.2,-4.1,0.0,0.0051,-0.0051,0.0488,598,445,637,445,0.00,0.01,2.60,0.18,0.1976,1,1,0,0.01,0.00,0.00,0.00,0.00,0.00,0.18,210,31
4920,0.5,2.0,65.3,-0.008,0.081,-1.039,4.2,-4.1,0.0,0.0044,-0.0063,-0.0554,406,633,447,640,0.00,0.01,2.61,0.18,0.1976,1,1,0,0.01,0.00,0.00,0.00,0.00,0.00,0.17,211,31
4930,-0.8,-2.1,-0.3,-0.018,0.011,-0.996,4.1,-4.1,0.0,0.0057,-0.0027,0.0006,552,525,586,513,0.00,0.01,2.60,0.18,0.2043,1,1,0,0.01,0.00,0.00,0.00,0.00,0.00,0.16,211,31
4940,-0.6,1.1,-60.8,0.043,-0.061,-0.985,4.2,-4.1,0.0,0.0056,-0.0060,0.0489,608,456,653,459,0.00,0.01,2.60,0.18,0.2043,1,1,0,0.01,0.00,0.00,0.00,0.00,0.00,0.16,211,31
4950,0.8,3.0,65.7,-0.024,0.094,-1.055,4.1,-4.0,0.0,0.0039,-0.0068,-0.0557,418,644,459,655,0.00,0.01,2.61,0.17,0.2043,1,1,0,0.01,0.00,0.00,0.00,0.00,0.00,0.17,211,31
4960,-0.1,-4.0,-0.2,-0.004,0.008,-0.982,4.1,-4.0,0.0,0.0050,-0.0008,0.0005,559,528,579,510,0.00,0.01,2.60,0.17,0.2043,1,1,0,0.01,0.00,0.00,0.00,0.00,0.00,0.18,211,31
4970,-1.5,1.6,-62.4,0.064,-0.060,-0.967,4.2,-4.1,0.0,0.0066,-0.0076,0.0452,603,457,657,460,0.00,0.01,2.60,0.17,0.2043,1,1,0,0.01,0.00,0.00,0.00,0.00,0.00,0.18,211,31
4980,0.0,4.7,66.5,-0.033,0.082,-1.073,4.2,-4.0,0.0,0.0049,-0.0094,-0.0542,413,644,465,659,0.00,0.01,2.61,0.17,0.2050,1,1,0,0.01,0.00,0.00,0.00,0.00,0.00,0.18,211,31
4991,1.0,-5.4,-1.5,-0.006,0.039,-0.994,4.1,-4.0,0.0,0.0038,0.0005,0.0015,555,540,565,521,0.00,0.01,2.60,0.17,0.2050,1,1,0,0.01,0.00,0.00,0.00,0.00,0.00,0.17,210,31
5001,-0.5,-0.4,-62.9,0.070,-0.069,-0.946,4.2,-4.2,0.0,0.0062,-0.0056,0.0457,609,460,654,458,0.00,0.01,2.60,0.17,0.2050,1,1,0,0.01,0.00,0.00,0.00,0.00,0.00,0.16,209,31
5011,-1.3,6.9,64.6,-0.040,0.076,-1.045,4.2,-4.1,0.0,0.0063,-0.0118,-0.0514,404,652,465,660,0.00,0.01,2.61,0.17,0.2050,1,1,0,0.01,0.00,0.00,0.00,0.00,0.00,0.18,209,31
5021,0.4,-4.1,-1.7,-0.024,0.026,-1.008,4.1,-4.0,0.0,0.0045,-0.0007,0.0017,593,505,596,487,0.00,0.01,2.60,0.17,0.2050,1,1,0,0.01,0.00,0.00,0.00,0.00,0.00,0.19,209,31
5031,0.9,-3.1,-63.4,0.088,-0.049,-0.975,4.2,-4.1,0.0,0.0042,-0.0022,0.0494,597,474,636,474,0.00,0.01,2.60,0.17,0.2050,1,1,0,0.01,0.00,0.00,0.00,0.00,0.00,0.19,210,31
5041,-0.9,4.4,65.6,-0.019,0.051,-1.050,4.2,-4.1,0.0,0.0060,-0.0093,-0.0522,404,652,463,662,0.00,0.01,2.61,0.17,0.2062,1,1,0,0.01,0.00,0.00,0.00,0.00,0.00,0.20,210,31
5051,-1.2,-0.7,2.1,-0.037,0.022,-1.001,4.1,-4.0,0.0,0.0060,-0.0037,0.0018,576,513,599,502,0.00,0.01,2.60,0.18,0.2062,1,1,0,0.01,0.00,0.02,0.00,0.00,0.00,0.18,210,31
5061,2.0,-2.3,-65.6,0.062,-0.033,-0.948,4.2,-4.1,0.0,0.0031,-0.0030,0.0498,605,475,634,477,0.00,0.01,2.60,0.18,0.2062,1,1,0,0.01,0.00,0.02,0.00,0.00,0.00,0.16,211,31
5071,1.1,2.7,65.2,0.000,0.071,-1.034,4.2,-4.1,0.0,0.0039,-0.0076,-0.0519,415,654,460,661,0.00,0.01,2.61,0.18,0.2062,1,1,0,0.01,0.00,0.01,0.00,0.00,0.00,0.16,211,31
5081,-2.7,-0.9,3.3,-0.035,0.018,-1.009,4.2,-4.0,0.0,0.0074,-0.0031,0.0073,568,519,603,501,0.00,0.01,2.60,0.17,0.2062,1,1,0,0.01,0.00,0.02,0.00,0.00,0.00,0.15,210,31
5091,0.6,-1.0,-65.9,0.048,-0.042,-0.959,4.2,-4.1,0.0,0.0043,-0.0039,0.0530,604,472,637,476,0.00,0.01,2.60,0.17,0.2062,1,1,0,0.01,0.00,0.02,0.00,0.00,0.00,0.16,210,31
5102,2.6,2.5,63.1,-0.009,0.092,-1.018,4.1,-4.0,0.0,0.0021,-0.0063,-0.0544,424,652,452,661,0.00,0.01,2.61,0.17,0.2062,1,1,0,0.01,0.00,0.01,0.00,0.00,0.00,0.18,210,31
5112,-2.5,-2.5,8.3,-0.013,0.011,-1.007,4.2,-4.1,0.0,0.0076,-0.0023,-0.0063,565,524,601,500,0.00,0.01,2.60,0.17,0.2062,1,1,0,0.01,0.00,0.02,0.00,0.00,0.00,0.18,210,31
5122,-1.9,-0.2,-65.6,0.053,-0.065,-0.974,4.2,-4.1,0.0,0.0065,-0.0056,0.0491,588,479,637,487,0.00,0.01,2.60,0.17,0.2062,1,1,0,0.01,0.00,0.02,0.00,0.00,0.00,0.18,210,31
5132,3.3,4.5,58.6,-0.028,0.070,-1.043,4.1,-4.0,0.0,0.0015,-0.0091,-0.0482,428,641,460,661,0.00,0.01,2.61,0.17,0.2062,1,1,0,0.01,0.00,0.01,0.00,0.00,0.00,0.17,209,31
5142,0.4,-4.0,10.1,-0.007,0.033,-0.993,4.2,-4.0,0.0,0.0046,-0.0008,-0.0077,592,550,608,524,0.00,0.01,2.60,0.17,0.2172,1,1,0,0.01,0.00,0.02,0.00,0.00,0.00,0.16,209,31
5152,-2.8,-0.1,-63.0,0.069,-0.070,-0.954,4.2,-4.2,0.0,0.0080,-0.0052,0.0495,616,495,673,489,0.00,0.01,2.60,0.17,0.2172,1,1,0,0.01,0.00,0.02,0.00,0.00,0.00,0.18,209,31
5162,0.7,6.0,55.5,-0.025,0.055,-1.061,4.1,-4.1,0.0,0.0042,-0.0110,-0.0441,442,657,492,682,0.00,0.01,2.61,0.17,0.2172,1,1,0,0.01,0.00,0.01,0.01,0.00,0.00,0.20,209,31
5172,1.7,-4.2,11.0,-0.020,0.049,-1.033,4.2,-4.0,0.0,0.0034,0.0006,0.0002,598,546,605,523,0.00,0.01,2.60,0.17,0.2172,1,1,0,0.01,0.00,0.00,0.00,0.00,0.00,0.19,209,31
5182,-1.2,-2.7,-62.6,0.075,-0.066,-0.950,4.2,-4.1,0.0,0.0066,-0.0025,0.0492,634,514,680,501,0.00,0.01,2.60,0.17,0.2245,1,1,0,0.01,0.00,0.00,0.00,0.00,0.00,0.17,208,31
5192,-1.1,5.2,57.1,-0.017,0.046,-1.051,4.1,-4.1,0.0,0.0062,-0.0102,-0.0454,451,678,506,694,0.00,0.01,2.61,0.17,0.2245,1,1,0,0.01,0.00,0.00,0.00,0.00,0.00,0.17,208,31
5203,0.6,-2.2,13.0,-0.028,0.030,-1.038,4.1,-4.0,0.0,0.0043,-0.0026,-0.0100,602,562,615,549,0.00,0.01,2.60,0.17,0.2245,1,1,0,0.01,0.00,0.00,0.00,0.00,0.00,0.18,207,31
5213,1.6,-4.3,-66.3,0.083,-0.039,-0.942,4.2,-4.1,0.0,0.0034,-0.0006,0.0533,643,509,674,503,0.00,0.01,2.60,0.17,0.2245,1,1,0,0.01,0.00,0.00,0.00,0.00,0.00,0.19,207,31
5223,-0.9,4.1,59.7,-0.003,0.045,-1.044,4.2,-4.1,0.0,0.0058,-0.0090,-0.0525,446,684,503,696,0.00,0.01,2.61,0.17,0.2245,1,1,0,0.01,0.00,0.00,0.00,0.00,0.00,0.19,206,31
5233,-1.0,0.1,13.2,-0.046,0.029,-1.016,4.1,-4.0,0.0,0.0061,-0.0051,-0.0102,598,557,625,548,0.00,0.01,2.60,0.18,0.2245,1,1,0,0.01,0.00,0.00,0.00,0.00,0.00,0.18,206,31
5243,0.4,-4.1,-67.1,0.072,-0.071,-0.943,4.2,-4.1,0.0,0.0046,-0.0008,0.0539,653,502,681,492,0.00,0.01,2.60,0.18,0.2245,1,1,0,0.01,0.00,0.00,0.00,0.00,0.00,0.18,207,31
5253,0.2,0.8,59.5,0.014,0.036,-1.028,4.2,-4.1,0.0,0.0044,-0.0060,-0.0525,453,686,494,695,0.00,0.01,2.61,0.18,0.2245,1,1,0,0.01,0.00,0.00,0.00,0.00,0.00,0.17,208,31
5263,0.4,0.1,13.8,-0.026,0.061,-1.010,4.1,-4.1,0.0,0.0046,-0.0051,-0.0107,591,556,628,553,0.00,0.01,2.60,0.17,0.2245,1,1,0,0.01,0.00,0.00,0.00,0.00,0.00,0.16,209,31
5273,0.4,-1.2,-69.5,0.048,-0.053,-0.962,4.2,-4.1,0.0,0.0050,-0.0044,0.0520,647,496,689,497,0.00,0.01,2.60,0.17,0.2245,1,1,0,0.01,0.00,0.00,0.00,0.00,0.00,0.15,209,31
5283,-0.1,1.4,58.5,-0.011,0.042,-1.037,4.2,-4.0,0.0,0.0052,-0.0064,-0.0465,453,694,490,690,0.00,0.01,2.61,0.17,0.2245,1,1,0,0.01,0.00,0.00,0.00,0.00,0.00,0.16,208,31
5293,-1.0,-3.9,16.0,-0.006,0.019,-1.004,4.1,-4.1,0.0,0.0060,-0.0010,-0.0092,590,570,614,554,0.00,0.01,2.60,0.17,0.2245,1,1,0,0.01,0.00,0.00,0.00,0.00,0.00,0.17,208,31
5304,1.2,-0.7,-71.3,0.064,-0.055,-0.942,4.2,-4.1,0.0,0.0038,-0.0042,0.0573,650,493,694,500,0.00,0.01,2.60,0.17,0.2257,1,1,0,0.01,0.00,0.00,0.00,0.00,0.00,0.18,208,31
5314,0.4,6.9,54.1,-0.034,0.050,-1.033,4.1,-4.1,0.0,0.0044,-0.0111,-0.0489,454,678,508,697,0.00,0.01,2.61,0.17,0.2257,1,1,0,0.01,0.00,0.00,0.00,0.00,0.00,0.18,208,31
5324,-0.3,-2.7,21.9,-0.031,0.026,-1.024,4.1,-4.0,0.0,0.0052,-0.0013,-0.0110,606,593,621,569,0.00,0.01,2.60,0.17,0.2324,1,1,0,0.01,0.00,0.00,0.00,0.00,0.00,0.16,208,31
5334,0.2,-3.5,-70.1,0.087,-0.052,-0.944,4.1,-4.1,0.0,0.0048,-0.0014,0.0563,674,509,705,500,0.00,0.01,2.60,0.17,0.2324,1,1,0,0.01,0.00,0.00,0.00,0.00,0.00,0.18,208,31
5344,1.3,6.1,55.2,-0.009,0.042,-1.023,4.1,-4.1,0.0,0.0035,-0.0108,-0.0498,466,690,518,714,0.00,0.01,2.61,0.17,0.2324,1,1,0,0.01,0.00,0.00,0.00,0.00,0.00,0.19,208,31
5354,-0.7,-0.6,20.6,-0.036,0.058,-1.022,4.1,-4.0,0.0,0.0058,-0.0043,-0.0161,600,587,630,571,0.00,0.01,2.60,0.17,0.2324,1,1,0,0.01,0.00,0.00,0.00,0.00,0.00,0.19,209,31
5364,-0.6,-3.0,-69.9,0.072,-0.069,-0.936,4.1,-4.1,0.0,0.0057,-0.0020,0.0562,670,512,707,500,0.00,0.01,2.60,0.17,0.2324,1,1,0,0.01,0.00,0.00,0.00,0.00,0.00,0.18,209,31
5374,0.1,3.5,56.1,-0.004,0.042,-1.036,4.1,-4.1,0.0,0.0047,-0.0081,-0.0506,467,698,514,710,0.00,0.01,2.61,0.17,0.2324,1,1,0,0.01,0.00,0.00,0.00,0.00,0.00,0.17,209,31
5384,0.4,-1.9,16.6,-0.027,0.049,-0.989,4.1,-4.0,0.0,0.0045,-0.0028,-0.0098,604,584,626,574,0.00,0.01,2.60,0.17,0.2324,1,1,0,0.01,0.00,0.00,0.00,0.00,0.00,0.17,209,31
5394,0.7,-2.2,-69.8,0.068,-0.039,-0.956,4.2,-4.1,0.0,0.0044,-0.0028,0.0561,670,509,708,502,0.00,0.01,2.60,0.17,0.2324,1,1,0,0.01,0.00,0.00,0.00,0.00,0.00,0.16,209,31
5405,-0.3,4.2,51.9,-0.012,0.039,-1.035,4.1,-4.1,0.0,0.0054,-0.0092,-0.0413,470,697,520,710,0.00,0.01,2.61,0.17,0.2336,1,1,0,0.01,0.00,0.00,0.00,0.00,0.00,0.16,209,31
5415,-0.9,-0.5,23.1,-0.025,0.025,-1.012,4.1,-4.0,0.0,0.0059,-0.0034,-0.0090,592,600,620,585,0.00,0.01,2.60,0.17,0.2336,1,1,0,0.01,0.00,0.00,0.00,0.00,0.00,0.17,209,31
5425,-0.4,-2.7,-70.1,0.067,-0.055,-0.962,4.1,-4.1,0.0,0.0057,-0.0024,0.0555,673,513,707,505,0.00,0.01,2.60,0.17,0.2336,1,1,0,0.01,0.00,0.00,0.00,0.00,0.00,0.17,209,31
5435,0.7,4.5,51.5,-0.009,0.029,-1.028,4.1,-4.1,0.0,0.0043,-0.0095,-0.0409,475,696,517,710,0.00,0.01,2.61,0.17,0.2336,1,1,0,0.01,0.00,0.00,0.00,0.00,0.00,0.18,209,31
5445,0.6,-2.7,23.3,-0.020,0.061,-1.035,4.1,-4.0,0.0,0.0048,-0.0015,-0.0093,609,616,632,600,0.00,0.01,2.60,0.17,0.2416,1,1,0,0.01,0.00,0.00,0.00,0.00,0.00,0.18,209,31
5455,-0.5,-2.7,-73.1,0.071,-0.054,-0.968,4.2,-4.1,0.0,0.0057,-0.0023,0.0588,688,531,725,514,0.00,0.01,2.60,0.17,0.2416,1,1,0,0.01,0.00,0.00,0.00,0.00,0.00,0.17,210,31
5465,-0.9,5.6,51.7,-0.010,-0.001,-1.016,4.1,-4.1,0.0,0.0056,-0.0102,-0.0478,480,720,528,734,0.00,0.01,2.61,0.17,0.2422,1,1,0,0.01,0.00,0.00,0.00,0.00,0.00,0.16,210,30
5475,0.1,-1.0,22.0,-0.027,0.046,-1.028,4.1,-4.0,0.0,0.0049,-0.0037,-0.0141,613,609,638,601,0.00,0.01,2.60,0.17,0.2422,1,1,0,0.01,0.00,0.00,0.00,0.00,0.00,0.18,210,30
5485,2.1,-1.5,-71.9,0.057,-0.051,-0.938,4.2,-4.1,0.0,0.0029,-0.0036,0.0578,691,527,721,523,0.00,0.01,2.60,0.17,0.2422,1,1,0,0.01,0.00,0.00,0.00,0.00,0.00,0.20,210,30
5495,0.3,4.0,51.5,-0.013,0.054,-1.020,4.2,-4.1,0.0,0.0050,-0.0079,-0.0474,486,728,526,722,0.00,0.01,2.61,0.17,0.2422,1,1,0,0.01,0.00,0.00,0.00,0.00,0.00,0.19,210,31
5506,-1.3,-3.0,21.1,-0.015,0.034,-1.023,4.1,-4.0,0.0,0.0065,-0.0018,-0.0136,610,616,640,596,0.00,0.01,2.60,0.17,0.2422,1,1,0,0.01,0.00,0.00,0.00,0.00,0.00,0.18,210,31
5516,-1.2,-1.8,-70.5,0.063,-0.070,-0.961,4.2,-4.1,0.0,0.0064,-0.0032,0.0567,683,532,723,523,0.00,0.01,2.60,0.17,0.2422,1,1,0,0.01,0.00,0.00,0.00,0.00,0.00,0.17,210,31
5526,0.8,5.9,52.3,-0.023,0.022,-1.025,4.1,-4.1,0.0,0.0037,-0.0105,-0.0480,488,706,537,731,0.00,0.01,2.61,0.17,0.2422,1,1,0,0.01,0.00,0.00,0.00,0.00,0.00,0.17,211,31
5536,1.1,-0.8,23.1,-0.036,0.054,-1.020,4.1,-4.0,0.0,0.0039,-0.0034,-0.0119,620,605,640,597,0.00,0.01,2.60,0.17,0.2422,1,1,0,0.01,0.00,0.00,0.00,0.00,0.00,0.16,211,31
5546,1.3,-2.3,-72.3,0.061,-0.029,-0.965,4.2,-4.1,0.0,0.0039,-0.0027,0.0581,697,522,727,515,0.00,0.01,2.60,0.17,0.2422,1,1,0,0.01,0.00,0.00,0.00,0.00,0.00,0.16,211,31
5556,-1.0,3.2,52.9,-0.008,0.034,-1.011,4.2,-4.1,0.0,0.0063,-0.0072,-0.0484,488,720,535,718,0.00,0.01,2.61,0.17,0.2422,1,1,0,0.01,0.00,0.00,0.00,0.00,0.00,0.16,211,31
5566,-2.1,-1.7,25.4,-0.013,0.032,-1.025,4.1,-4.0,0.0,0.0073,-0.0033,-0.0199,613,620,648,600,0.00,0.01,2.60,0.17,0.2446,1,1,0,0.01,0.00,0.00,0.00,0.00,0.00,0.17,211,31
5576,-0.9,-1.3,-71.7,0.075,-0.071,-0.959,4.2,-4.1,0.0,0.0061,-0.0038,0.0577,696,528,735,521,0.00,0.01,2.60,0.17,0.2446,1,1,0,0.01,0.00,0.00,0.00,0.00,0.00,0.17,211,31
5586,1.5,5.8,52.8,-0.019,0.030,-1.016,4.2,-4.1,0.0,0.0035,-0.0108,-0.0442,494,711,540,736,0.00,0.01,2.61,0.17,0.2446,1,1,0,0.01,0.00,0.00,0.00,0.00,0.00,0.17,211,31
5596,1.7,-1.1,23.9,-0.027,0.067,-1.015,4.1,-4.0,0.0,0.0034,-0.0039,-0.0188,610,624,631,615,0.00,0.01,2.60,0.17,0.2446,1,1,0,0.01,0.00,0.00,0.00,0.00,0.00,0.17,211,31
5606,1.0,-2.4,-74.3,0.073,-0.037,-0.950,4.2,-4.1,0.0,0.0049,-0.0029,0.0570,713,540,748,530,0.00,0.01,2.60,0.17,0.2513,1,1,0,0.01,0.00,0.00,0.00,0.00,0.00,0.16,209,31
5616,-0.5,4.3,53.6,-0.015,0.058,-1.002,4.2,-4.1,0.0,0.0057,-0.0093,-0.0449,502,734,554,741,0.00,0.01,2.61,0.17,0.2513,1,1,0,0.01,0.00,0.00,0.00,0.00,0.00,0.18,209,31
5627,-2.3,-1.1,28.4,-0.027,0.034,-1.031,4.2,-4.0,0.0,0.0076,-0.0036,-0.0195,615,644,648,625,0.00,0.01,2.60,0.17,0.2513,1,1,0,0.01,0.00,0.00,0.00,0.00,0.00,0.20,209,31
5637,0.2,-2.7,-72.4,0.073,-0.059,-0.975,4.2,-4.1,0.0,0.0052,-0.0027,0.0556,711,542,745,533,0.00,0.01,2.60,0.17,0.2513,1,1,0,0.01,0.00,-0.02,0.00,0.00,0.00,0.20,210,31
5647,0.8,5.2,48.8,-0.016,0.019,-1.029,4.2,-4.1,0.0,0.0044,-0.0103,-0.0388,513,720,560,739,0.00,0.01,2.61,0.17,0.2513,1,1,0,0.01,0.00,-0.01,0.00,0.00,0.00,0.20,210,31
5657,1.5,-1.4,26.8,-0.031,0.056,-1.032,4.2,-4.0,0.0,0.0037,-0.0033,-0.0181,624,635,645,627,0.00,0.01,2.60,0.18,0.2513,1,1,0,0.01,0.00,0.00,0.00,0.00,0.00,0.18,210,31
5667,1.6,-1.4,-74.2,0.070,-0.049,-0.957,4.2,-4.1,0.0,0.0036,-0.0036,0.0596,713,540,749,533,0.00,0.01,2.60,0.18,0.2519,1,1,0,0.01,0.00,0.00,0.00,0.00,0.00,0.16,210,31
5677,0.0,5.4,51.0,-0.008,0.044,-1.003,4.2,-4.1,0.0,0.0052,-0.0106,-0.0405,501,732,557,746,0.00,0.01,2.61,0.18,0.2519,1,1,0,0.01,0.00,0.00,0.00,0.00,0.00,0.16,210,31
5687,-1.5,-0.9,28.6,-0.032,0.041,-1.015,4.1,-4.0,0.0,0.0071,-0.0029,-0.0134,617,646,649,624,0.00,0.01,2.60,0.17,0.2519,1,1,0,0.01,0.00,0.00,0.00,0.00,0.00,0.16,210,31
5697,-0.9,-3.6,-73.6,0.070,-0.078,-0.973,4.2,-4.1,0.0,0.0062,-0.0015,0.0592,711,546,747,531,0.00,0.01,2.60,0.17,0.2519,1,1,0,0.01,0.00,0.00,0.00,0.00,0.00,0.17,210,31
5707,-0.2,4.3,48.0,-0.005,0.000,-1.021,4.2,-4.1,0.0,0.0054,-0.0093,-0.0405,525,740,572,754,0.00,0.01,2.61,0.17,0.2593,1,1,0,0.01,0.00,0.00,0.00,0.00,0.00,0.18,210,31
5717,0.9,-1.1,27.0,-0.024,0.035,-1.022,4.1,-4.0,0.0,0.0042,-0.0032,-0.0118,639,648,662,642,0.00,0.01,2.60,0.17,0.2593,1,1,0,0.01,0.00,0.00,0.00,0.00,0.00,0.19,210,31
5727,2.3,-0.7,-74.5,0.062,-0.044,-0.943,4.2,-4.1,0.0,0.0029,-0.0044,0.0599,728,550,762,551,0.00,0.01,2.60,0.17,0.2593,1,1,0,0.01,0.00,0.00,0.00,0.00,0.00,0.17,210,31
5738,1.1,6.3,51.7,-0.024,0.060,-1.007,4.1,-4.1,0.0,0.0040,-0.0115,-0.0411,517,745,568,761,0.00,0.01,2.61,0.17,0.2593,1,1,0,0.01,0.00,0.00,0.00,0.00,0.00,0.16,210,31
5748,-1.0,-2.0,26.6,-0.037,0.070,-1.028,4.1,-4.0,0.0,0.0067,-0.0016,-0.0118,636,659,663,633,0.00,0.01,2.60,0.17,0.2593,1,1,0,0.01,0.00,0.00,0.00,0.00,0.00,0.17,210,31
5758,-1.7,-4.0,-73.7,0.077,-0.061,-0.963,4.1,-4.1,0.0,0.0070,-0.0011,0.0592,722,563,762,544,0.00,0.01,2.60,0.17,0.2593,1,1,0,0.01,0.00,0.00,0.00,0.00,0.00,0.18,210,31
5768,-1.0,4.2,52.3,-0.007,0.002,-1.029,4.1,-4.1,0.0,0.0062,-0.0094,-0.0416,522,745,575,754,0.00,0.01,2.61,0.17,0.2599,1,1,0,0.01,0.00,0.00,0.00,0.00,0.00,0.18,210,31
5778,-0.7,-1.9,25.7,-0.020,0.028,-1.001,4.1,-4.0,0.0,0.0055,-0.0024,-0.0109,642,650,664,640,0.00,0.01,2.60,0.17,0.2599,1,1,0,0.01,0.00,0.00,0.00,0.00,0.00,0.18,209,31
5788,2.2,-2.2,-72.7,0.072,-0.047,-0.956,4.1,-4.1,0.0,0.0029,-0.0029,0.0585,745,570,776,574,0.00,0.01,2.60,0.17,0.2690,1,1,0,0.01,0.00,0.00,0.00,0.00,0.00,0.17,209,31
5798,2.1,5.9,48.0,-0.014,0.042,-1.038,4.1,-4.1,0.0,0.0031,-0.0110,-0.0406,542,754,592,777,0.00,0.01,2.61,0.17,0.2690,1,1,0,0.01,0.00,0.00,0.01,0.00,0.00,0.17,209,31
5808,0.3,-0.6,25.9,-0.037,0.063,-1.022,4.1,-4.0,0.0,0.0050,-0.0039,-0.0173,644,682,671,668,0.00,0.01,2.60,0.17,0.2690,1,1,0,0.01,0.00,0.00,0.00,0.00,0.00,0.17,208,31
5818,-0.3,-3.7,-74.9,0.063,-0.054,-0.931,4.1,-4.1,0.0,0.0056,-0.0015,0.0602,751,572,786,555,0.00,0.01,2.60,0.17,0.2690,1,1,0,0.01,0.00,0.00,0.00,0.00,0.00,0.17,208,31
5828,-2.3,4.3,49.8,-0.008,0.019,-1.017,4.1,-4.1,0.0,0.0073,-0.0091,-0.0467,536,765,593,771,0.00,0.01,2.61,0.17,0.2690,1,1,0,0.01,0.00,0.00,0.01,0.00,0.00,0.18,208,31
5838,-1.5,-2.1,30.6,-0.027,0.025,-1.046,4.1,-4.0,0.0,0.0068,-0.0030,-0.0241,640,685,671,669,0.00,0.01,2.60,0.17,0.2690,1,1,0,0.01,0.00,0.00,0.00,0.00,0.00,0.18,208,31
5848,1.0,-1.5,-73.2,0.060,-0.055,-0.944,4.1,-4.1,0.0,0.0042,-0.0037,0.0588,750,567,783,565,0.00,0.01,2.60,0.17,0.2690,1,1,0,0.01,0.00,0.00,0.00,0.00,0.00,0.18,208,31
5859,0.6,5.7,49.9,-0.014,0.010,-0.999,4.1,-4.1,0.0,0.0041,-0.0102,-0.0464,542,757,589,777,0.00,0.01,2.61,0.17,0.2690,1,1,0,0.01,0.00,0.00,0.01,0.00,0.00,0.17,208,31
5869,0.4,-0.8,29.1,-0.032,0.056,-1.043,4.1,-4.0,0.0,0.0048,-0.0043,-0.0230,645,680,673,671,0.00,0.01,2.60,0.17,0.2696,1,1,0,0.01,0.00,0.00,0.00,0.00,0.00,0.17,209,31
5879,0.9,-3.1,-74.4,0.074,-0.036,-0.972,4.1,-4.1,0.0,0.0043,-0.0020,0.0598,752,572,786,560,0.00,0.01,2.60,0.17,0.2696,1,1,0,0.01,0.00,0.00,0.00,0.00,0.00,0.16,209,31
5889,-0.1,4.6,48.6,-0.009,0.036,-1.009,4.1,-4.1,0.0,0.0053,-0.0092,-0.0453,561,766,614,779,0.00,0.01,2.61,0.17,0.2763,1,1,0,0.01,0.00,0.00,0.01,0.00,0.00,0.17,209,31
5899,-1.1,-1.0,27.4,-0.021,0.040,-1.012,4.1,-4.0,0.0,0.0065,-0.0032,-0.0157,659,696,688,677,0.00,0.01,2.60,0.17,0.2763,1,1,0,0.01,0.00,0.00,0.00,0.00,0.00,0.17,208,31
5909,0.0,-3.3,-72.3,0.073,-0.059,-0.967,4.1,-4.1,0.0,0.0053,-0.0019,0.0581,765,584,799,572,0.00,0.01,2.60,0.17,0.2763,1,1,0,0.01,0.00,0.00,0.01,0.00,0.00,0.18,209,31
5919,0.1,4.2,50.4,-0.008,0.028,-1.038,4.1,-4.1,0.0,0.0046,-0.0091,-0.0468,559,767,610,785,0.00,0.01,2.61,0.17,0.2763,1,1,0,0.01,0.00,0.00,0.01,0.00,0.00,0.18,209,31
5929,0.6,-0.3,27.9,-0.029,0.047,-0.997,4.1,-4.0,0.0,0.0046,-0.0048,-0.0220,660,688,688,683,0.00,0.01,2.60,0.17,0.2763,1,1,0,0.01,0.00,0.00,0.00,0.00,0.00,0.17,209,31
5939,1.4,-1.1,-72.9,0.064,-0.041,-0.942,4.1,-4.1,0.0,0.0044,-0.0044,0.0565,765,578,801,576,0.00,0.01,2.60,0.17,0.2763,1,1,0,0.01,0.00,0.00,0.01,0.00,0.00,0.16,209,31
5949,0.8,5.3,46.7,-0.010,0.030,-1.039,4.1,-4.1,0.0,0.0046,-0.0102,-0.0420,558,767,612,784,0.00,0.01,2.61,0.17,0.2763,1,1,0,0.01,0.00,0.00,0.01,0.00,0.00,0.18,209,31
5960,0.8,-0.4,31.6,-0.030,0.061,-1.027,4.1,-4.0,0.0,0.0045,-0.0042,-0.0221,648,703,675,694,0.00,0.01,2.60,0.17,0.2763,1,1,0,0.01,0.00,0.00,0.01,0.00,0.00,0.19,209,30
5970,0.9,-1.9,-74.2,0.072,-0.038,-0.935,4.1,-4.1,0.0,0.0045,-0.0034,0.0590,770,582,803,574,0.00,0.01,2.60,0.17,0.2776,1,1,0,0.01,0.00,0.00,0.01,0.00,0.00,0.19,209,30
5980,-0.2,5.2,44.2,0.003,0.026,-1.031,4.1,-4.1,0.0,0.0057,-0.0104,-0.0378,563,765,623,778,0.00,0.01,2.61,0.17,0.2776,1,1,0,0.01,0.00,0.00,0.01,0.00,0.00,0.18,209,30
5990,-1.3,-1.4,31.2,-0.022,0.037,-1.012,4.1,-4.0,0.0,0.0067,-0.0024,-0.0154,650,709,681,690,0.00,0.01,2.60,0.17,0.2776,1,1,0,0.01,0.00,0.00,0.01,0.00,0.00,0.18,209,30
6000,-1.1,-2.9,-74.7,0.080,-0.078,-0.937,4.1,-4.1,0.0,0.0064,-0.0024,0.0601,773,583,807,566,0.00,0.01,2.60,0.17,0.2776,1,1,0,0.01,0.00,0.00,0.01,0.00,0.00,0.17,208,30
6010,-1.4,4.3,44.3,0.004,0.009,-1.026,4.1,-4.1,0.0,0.0066,-0.0095,-0.0378,565,766,622,777,0.00,0.01,2.61,0.17,0.2776,1,1,0,0.01,0.00,0.00,0.01,0.00,0.00,0.16,207,30
6020,0.2,-1.7,30.4,-0.021,0.041,-1.043,4.1,-4.1,0.0,0.0048,-0.0034,-0.0151,650,702,681,697,0.00,0.01,2.60,0.17,0.2788,1,1,0,0.01,0.00,0.00,0.01,0.00,0.00,0.16,207,30
6030,1.3,-1.5,-72.0,0.067,-0.044,-0.951,4.1,-4.1,0.0,0.0039,-0.0038,0.0579,772,581,805,580,0.00,0.01,2.60,0.17,0.2788,1,1,0,0.01,0.00,0.00,0.01,0.00,0.00,0.17,207,30
6040,0.7,5.8,45.5,-0.011,0.016,-1.016,4.1,-4.1,0.0,0.0045,-0.0106,-0.0433,567,764,623,785,0.00,0.01,2.61,0.17,0.2892,1,1,0,0.01,0.00,0.00,0.01,0.00,0.00,0.17,208,30
6050,-0.2,-1.0,28.4,-0.027,0.059,-1.013,4.1,-4.1,0.0,0.0056,-0.0038,-0.0194,663,734,696,724,0.00,0.01,2.60,0.17,0.2892,1,1,0,0.01,0.00,0.00,0.01,0.00,0.00,0.18,208,30
6060,0.7,-3.0,-74.0,0.078,-0.051,-0.953,4.1,-4.1,0.0,0.0046,-0.0022,0.0595,797,602,825,593,0.00,0.01,2.60,0.17,0.2892,1,1,0,0.01,0.00,0.00,0.01,0.00,0.00,0.17,208,30
6071,0.2,5.8,45.4,-0.011,0.020,-1.016,4.1,-4.1,0.0,0.0046,-0.0109,-0.0435,585,783,643,806,0.00,0.01,2.61,0.17,0.2892,1,1,0,0.01,0.00,0.00,0.01,0.00,0.00,0.16,208,30
6081,0.8,-0.2,32.8,-0.029,0.060,-1.048,4.1,-4.1,0.0,0.0045,-0.0050,-0.0259,662,734,692,729,0.00,0.01,2.60,0.17,0.2910,1,1,0,0.01,0.00,0.00,0.01,0.00,0.00,0.19,208,30
6091,1.6,-1.7,-74.5,0.066,-0.059,-0.951,4.1,-4.1,0.0,0.0036,-0.0036,0.0599,800,602,831,599,0.00,0.01,2.60,0.17,0.2910,1,1,0,0.01,0.00,0.00,0.01,0.00,0.00,0.22,208,30
6101,0.9,5.9,45.7,-0.007,0.034,-1.005,4.1,-4.1,0.0,0.0042,-0.0107,-0.0435,611,792,667,816,0.00,0.01,2.61,0.18,0.2983,1,1,0,0.01,0.00,0.00,0.00,0.00,0.00,0.20,208,31
6111,0.2,-0.7,31.8,-0.022,0.064,-1.038,4.1,-4.1,0.0,0.0050,-0.0046,-0.0251,680,752,713,742,0.00,0.01,2.60,0.18,0.2983,1,1,0,0.01,0.00,0.00,0.00,0.00,0.00,0.19,209,31
6121,0.6,-2.2,-75.1,0.070,-0.054,-0.937,4.1,-4.1,0.0,0.0050,-0.0031,0.0586,817,614,848,607,0.00,0.01,2.60,0.18,0.2983,1,1,0,0.01,0.00,0.00,0.00,0.00,0.00,0.18,209,31
6131,-0.1,4.4,47.2,-0.004,0.033,-1.025,4.1,-4.1,0.0,0.0056,-0.0097,-0.0401,608,800,665,813,0.00,0.01,2.61,0.18,0.2983,1,1,0,0.01,0.00,0.00,0.00,0.00,0.00,0.17,210,31
6141,-0.8,-1.1,31.4,-0.026,0.064,-1.028,4.1,-4.1,0.0,0.0062,-0.0042,-0.0247,679,753,716,738,0.00,0.01,2.60,0.18,0.2983,1,1,0,0.01,0.00,0.00,0.00,0.00,0.00,0.16,210,31
6151,0.2,-3.2,-73.3,0.072,-0.039,-0.948,4.1,-4.2,0.0,0.0056,-0.0023,0.0571,814,620,845,607,0.00,0.01,2.60,0.18,0.2983,1,1,0,0.01,0.00,0.00,0.00,0.00,0.00,0.16,210,31
6161,-0.9,5.0,44.2,0.000,0.028,-1.021,4.1,-4.1,0.0,0.0063,-0.0101,-0.0403,606,800,667,813,0.00,0.01,2.61,0.18,0.2983,1,1,0,0.01,0.00,0.00,0.00,0.00,0.00,0.16,210,31
6171,-1.6,-1.3,30.1,-0.026,0.048,-1.046,4.1,-4.1,0.0,0.0070,-0.0040,-0.0238,667,762,708,749,0.00,0.01,2.61,0.18,0.2983,1,1,0,0.01,0.00,0.00,0.00,0.00,0.00,0.18,210,31
6182,-0.5,-3.1,-74.0,0.072,-0.059,-0.949,4.1,-4.2,0.0,0.0060,-0.0023,0.0590,814,620,847,606,0.00,0.01,2.60,0.18,0.2983,1,1,0,0.01,0.00,0.00,0.00,0.00,0.00,0.19,210,31
6192,-1.5,5.0,45.1,0.003,0.025,-1.005,4.1,-4.1,0.0,0.0070,-0.0104,-0.0358,613,792,676,805,0.00,0.01,2.61,0.18,0.2983,1,1,0,0.01,0.00,0.00,0.00,0.00,0.00,0.18,209,31
6202,-0.9,-1.3,34.2,-0.024,0.047,-1.042,4.1,-4.1,0.0,0.0064,-0.0032,-0.0184,669,762,705,750,0.00,0.01,2.61,0.18,0.2983,1,1,0,0.01,0.00,0.00,0.00,0.00,0.00,0.16,209,31
6212,-0.7,-2.2,-74.5,0.067,-0.056,-0.954,4.1,-4.2,0.0,0.0061,-0.0032,0.0599,812,619,848,607,0.00,0.01,2.60,0.18,0.2983,1,1,0,0.01,0.00,0.00,0.00,0.00,0.00,0.16,208,31
6222,-0.7,5.0,42.4,-0.005,0.014,-1.032,4.1,-4.1,0.0,0.0060,-0.0100,-0.0415,613,792,674,808,0.00,0.01,2.61,0.18,0.2983,1,1,0,0.01,0.00,0.00,0.00,0.00,0.00,0.18,209,31
6232,-1.0,-1.7,37.4,-0.014,0.043,-0.990,4.1,-4.1,0.0,0.0066,-0.0032,-0.0239,670,762,706,748,0.00,0.01,2.61,0.18,0.2983,1,1,0,0.01,0.00,0.00,0.00,0.00,0.00,0.20,209,31
6242,0.0,-1.9,-74.7,0.077,-0.046,-0.973,4.1,-4.2,0.0,0.0054,-0.0035,0.0601,812,616,848,610,0.00,0.01,2.60,0.18,0.2983,1,1,0,0.01,0.00,0.00,0.00,0.00,0.00,0.19,209,31
6252,-0.8,5.2,43.5,-0.003,-0.002,-1.007,4.1,-4.1,0.0,0.0056,-0.0103,-0.0421,612,792,672,810,0.00,0.01,2.61,0.18,0.2983,1,1,0,0.01,0.00,0.00,0.00,0.00,0.00,0.18,210,31
6262,0.2,-0.5,36.7,-0.013,0.051,-1.041,4.1,-4.1,0.0,0.0051,-0.0049,-0.0290,671,754,707,753,0.00,0.01,2.61,0.18,0.2983,1,1,0,0.01,0.00,0.00,0.00,0.00,0.00,0.17,210,31
6272,1.5,-1.8,-73.3,0.067,-0.051,-0.947,4.1,-4.2,0.0,0.0038,-0.0036,0.0589,816,612,846,612,0.00,0.01,2.60,0.18,0.2983,1,1,0,0.01,0.00,0.00,0.00,0.00,0.00,0.16,210,31
6282,0.3,5.6,43.9,0.001,0.023,-1.024,4.1,-4.1,0.0,0.0051,-0.0109,-0.0425,611,791,671,813,0.00,0.01,2.61,0.18,0.2983,1,1,0,0.01,0.00,0.00,0.00,0.00,0.00,0.16,210,31
6293,0.0,0.1,35.9,-0.021,0.047,-1.024,4.1,-4.1,0.0,0.0054,-0.0056,-0.0283,671,754,710,751,0.00,0.01,2.61,0.18,0.2983,1,1,0,0.01,0.00,0.00,0.00,0.00,0.00,0.17,210,31
6303,0.7,-1.1,-73.9,0.075,-0.067,-0.948,4.1,-4.2,0.0,0.0048,-0.0044,0.0591,814,614,851,611,0.00,0.01,2.60,0.18,0.2989,1,1,0,0.01,0.00,0.00,0.00,0.00,0.00,0.18,209,31
6313,0.3,6.4,42.4,-0.001,0.010,-1.020,4.1,-4.1,0.0,0.0049,-0.0119,-0.0362,614,787,676,814,0.00,0.01,2.61,0.18,0.2989,1,1,0,0.01,0.00,0.00,0.00,0.00,0.00,0.19,209,31
6323,0.0,0.0,34.2,-0.029,0.053,-1.035,4.1,-4.1,0.0,0.0053,-0.0054,-0.0270,664,765,702,761,0.00,0.01,2.61,0.18,0.2989,1,1,0,0.01,0.00,0.00,0.00,0.00,0.00,0.19,209,31
6333,1.6,-2.8,-75.3,0.069,-0.045,-0.968,4.1,-4.1,0.0,0.0038,-0.0026,0.0602,822,614,847,608,0.00,0.01,2.60,0.18,0.2989,1,1,0,0.01,0.00,0.00,0.00,0.00,0.00,0.18,209,31
6343,0.6,6.0,40.8,-0.018,0.016,-1.019,4.1,-4.1,0.0,0.0048,-0.0115,-0.0324,621,782,682,806,0.00,0.01,2.61,0.18,0.2989,1,1,0,0.01,0.00,0.00,0.00,0.00,0.00,0.16,209,31
6353,0.4,-1.0,37.9,-0.038,0.067,-1.033,4.1,-4.1,0.0,0.0055,-0.0031,-0.0215,666,768,699,759,0.00,0.01,2.61,0.18,0.2989,1,1,0,0.01,0.00,0.00,0.00,0.00,0.00,0.17,210,31
6363,0.3,-3.1,-74.9,0.059,-0.047,-0.967,4.1,-4.1,0.0,0.0051,-0.0023,0.0602,821,616,850,604,0.00,0.01,2.60,0.18,0.2989,1,1,0,0.01,0.00,0.00,0.00,0.00,0.00,0.18,210,31
6373,-0.9,4.7,41.1,-0.005,0.014,-1.022,4.1,-4.1,0.0,0.0064,-0.0102,-0.0326,620,787,683,802,0.00,0.01,2.61,0.18,0.2989,1,1,0,0.01,0.00,0.00,0.00,0.00,0.00,0.18,210,31
6383,-1.0,-2.0,37.9,-0.027,0.048,-1.029,4.1,-4.1,0.0,0.0063,-0.0030,-0.0214,664,769,700,757,0.00,0.01,2.61,0.18,0.2989,1,1,0,0.01,0.00,0.00,0.00,0.00,0.00,0.18,211,31
6394,-0.4,-1.7,-74.9,0.065,-0.067,-0.970,4.1,-4.2,0.0,0.0059,-0.0038,0.0602,812,615,854,609,0.00,0.01,2.60,0.18,0.2989,1,1,0,0.01,0.00,0.00,0.00,0.00,0.00,0.17,210,31
6404,-0.9,5.0,38.4,0.007,-0.001,-1.022,4.1,-4.1,0.0,0.0059,-0.0104,-0.0385,619,787,681,804,0.00,0.01,2.61,0.18,0.2989,1,1,0,0.01,0.00,0.00,0.01,0.00,0.00,0.16,210,31
6414,-0.1,-0.6,36.0,-0.023,0.048,-1.027,4.1,-4.1,0.0,0.0056,-0.0049,-0.0257,654,773,694,770,0.00,0.01,2.61,0.18,0.2989,1,1,0,0.01,0.00,0.00,0.00,0.00,0.00,0.16,209,30
6424,0.2,-1.4,-73.4,0.068,-0.056,-0.990,4.1,-4.2,0.0,0.0052,-0.0043,0.0581,814,615,851,611,0.00,0.01,2.60,0.18,0.2989,1,1,0,0.01,0.00,0.00,0.00,0.00,0.00,0.16,209,30
6434,-0.3,5.8,38.7,0.001,-0.009,-1.012,4.1,-4.1,0.0,0.0058,-0.0112,-0.0334,618,786,681,805,0.00,0.01,2.61,0.18,0.2989,1,1,0,0.01,0.00,0.00,0.01,0.00,0.00,0.17,209,30
6444,-0.8,-1.1,37.7,-0.024,0.053,-1.022,4.1,-4.1,0.0,0.0063,-0.0043,-0.0298,657,773,697,764,0.00,0.01,2.61,0.18,0.2989,1,1,0,0.01,0.00,0.00,0.00,0.00,0.00,0.18,209,30
6454,0.0,-3.2,-74.8,0.080,-0.057,-0.964,4.1,-4.1,0.0,0.0056,-0.0023,0.0599,819,618,849,605,0.00,0.01,2.60,0.18,0.2989,1,1,0,0.01,0.00,0.00,0.00,0.00,0.00,0.18,210,30
6464,-0.3,4.0,40.8,0.009,0.005,-1.007,4.1,-4.1,0.0,0.0055,-0.0100,-0.0402,617,790,676,807,0.00,0.01,2.61,0.18,0.2989,1,1,0,0.01,0.00,0.00,0.01,0.00,0.00,0.18,210,30
6474,0.0,1.2,37.9,-0.029,0.066,-1.041,4.1,-4.1,0.0,0.0054,-0.0067,-0.0300,654,767,699,771,0.00,0.01,2.61,0.18,0.2989,1,1,0,0.01,0.00,0.00,0.00,0.00,0.00,0.17,210,30
6484,1.0,-3.4,-74.2,0.073,-0.057,-0.966,4.1,-4.1,0.0,0.0046,-0.0025,0.0587,820,616,847,608,0.00,0.01,2.60,0.18,0.2989,1,1,0,0.01,0.00,0.00,0.00,0.00,0.00,0.16,210,30
6495,-1.0,4.8,37.3,0.016,0.002,-1.027,4.1,-4.1,0.0,0.0065,-0.0104,-0.0295,624,781,689,797,0.00,0.01,2.61,0.18,0.2989,1,1,0,0.01,0.00,0.00,0.01,0.00,0.00,0.17,210,30
6505,-0.5,0.5,41.0,-0.025,0.047,-1.043,4.1,-4.1,0.0,0.0060,-0.0055,-0.0243,708,726,740,717,0.00,0.01,2.61,0.18,0.2989,1,1,0,0.01,0.00,0.00,0.00,0.00,0.00,0.17,210,30
6515,0.5,-3.0,-72.8,0.076,-0.044,-0.961,4.1,-4.1,0.0,0.0050,-0.0025,0.0582,808,624,841,617,0.00,0.01,2.60,0.18,0.2989,1,1,0,0.01,0.00,0.00,0.00,0.00,0.00,0.18,210,30
6525,-0.2,5.8,40.1,0.003,-0.001,-0.993,4.1,-4.1,0.0,0.0057,-0.0114,-0.0318,600,805,657,829,0.00,0.01,2.61,0.18,0.2989,1,1,0,0.01,0.00,0.00,0.01,0.00,0.00,0.18,211,30
6535,0.4,0.3,36.9,-0.037,0.052,-1.059,4.1,-4.1,0.0,0.0049,-0.0050,-0.0207,717,717,744,712,0.00,0.01,2.61,0.18,0.2989,1,1,0,0.01,0.00,0.00,0.00,0.00,0.00,0.18,211,30
6545,1.6,-1.8,-72.2,0.063,-0.062,-0.934,4.1,-4.1,0.0,0.0039,-0.0039,0.0577,806,621,840,623,0.00,0.01,2.60,0.18,0.2989,1,1,0,0.01,0.00,0.00,0.01,0.00,0.00,0.17,211,30
6555,1.0,6.5,36.3,0.001,0.013,-1.021,4.1,-4.1,0.0,0.0041,-0.0119,-0.0368,602,803,656,830,0.00,0.01,2.61,0.18,0.2989,1,1,0,0.01,0.00,0.00,0.01,0.00,0.00,0.18,212,30
6565,1.2,0.3,34.4,-0.031,0.049,-1.043,4.0,-4.1,0.0,0.0041,-0.0056,-0.0244,698,738,727,737,0.00,0.01,2.61,0.18,0.3001,1,1,0,0.01,0.00,0.00,0.00,0.00,0.00,0.19,212,30
6575,2.2,-1.6,-73.6,0.065,-0.055,-0.959,4.1,-4.1,0.0,0.0032,-0.0039,0.0592,810,623,840,627,0.00,0.01,2.60,0.18,0.3001,1,1,0,0.01,0.00,0.00,0.01,0.00,0.00,0.19,211,30
6585,2.2,6.4,39.2,-0.011,0.020,-1.022,4.1,-4.1,0.0,0.0032,-0.0115,-0.0389,603,810,654,833,0.00,0.01,2.61,0.18,0.3001,1,1,0,0.01,0.00,0.00,0.01,0.00,0.00,0.18,211,30
6595,1.1,-0.7,33.6,-0.038,0.054,-1.033,4.1,-4.0,0.0,0.0044,-0.0044,-0.0237,700,739,730,731,0.00,0.01,2.61,0.18,0.3001,1,1,0,0.01,0.00,0.00,0.01,0.00,0.00,0.18,211,30
6605,1.8,-1.5,-73.9,0.057,-0.045,-0.969,4.1,-4.1,0.0,0.0037,-0.0040,0.0594,807,627,842,624,0.00,0.01,2.61,0.18,0.3001,1,1,0,0.01,0.00,0.00,0.01,0.00,0.00,0.17,211,30
6616,1.0,5.6,40.5,-0.013,0.013,-1.005,4.1,-4.1,0.0,0.0043,-0.0108,-0.0398,607,806,661,827,0.00,0.01,2.61,0.18,0.3001,1,1,0,0.01,0.00,0.00,0.01,0.00,0.00,0.17,211,30
6626,0.6,-0.9,36.2,-0.025,0.079,-1.038,4.1,-4.1,0.0,0.0050,-0.0041,-0.0231,699,739,732,730,0.00,0.01,2.61,0.18,0.3001,1,1,0,0.01,0.00,0.00,0.01,0.00,0.00,0.16,210,30
6636,1.2,-2.1,-73.4,0.046,-0.048,-0.972,4.1,-4.1,0.0,0.0043,-0.0034,0.0590,811,625,846,619,0.00,0.01,2.61,0.18,0.3001,1,1,0,0.01,0.00,0.00,0.01,0.00,0.00,0.17,210,30
6646,0.8,5.7,43.3,-0.006,0.038,-1.010,4.1,-4.1,0.0,0.0048,-0.0110,-0.0420,601,811,658,829,0.00,0.01,2.61,0.18,0.3001,1,1,0,0.01,0.00,0.00,0.01,0.00,0.00,0.18,210,30
6656,0.0,-0.4,30.6,-0.036,0.065,-1.019,4.1,-4.1,0.0,0.0058,-0.0048,-0.0213,701,738,738,723,0.00,0.01,2.61,0.18,0.3001,1,1,0,0.01,0.00,0.00,0.01,0.00,0.00,0.18,210,30
6666,0.2,-2.6,-73.9,0.063,-0.039,-0.993,4.1,-4.1,0.0,0.0053,-0.0029,0.0594,809,632,848,615,0.00,0.01,2.61,0.18,0.3007,1,1,0,0.01,0.00,0.00,0.01,0.00,0.00,0.18,211,30
6676,-1.0,5.0,43.4,-0.014,0.019,-1.000,4.1,-4.1,0.0,0.0064,-0.0099,-0.0419,603,817,660,825,0.00,0.01,2.61,0.18,0.3007,1,1,0,0.01,0.00,0.00,0.01,0.00,0.00,0.17,211,30
6686,-0.8,-1.4,33.7,-0.028,0.060,-1.051,4.1,-4.0,0.0,0.0064,-0.0041,-0.0266,691,753,727,734,0.00,0.01,2.61,0.18,0.3007,1,1,0,0.01,0.00,0.00,0.01,0.00,0.00,0.19,211,30
6696,-0.5,-2.7,-74.9,0.059,-0.055,-0.948,4.1,-4.1,0.0,0.0062,-0.0028,0.0599,813,631,847,614,0.00,0.01,2.61,0.18,0.3007,1,1,0,0.01,0.00,0.00,0.00,0.00,0.00,0.20,211,31
6706,-1.1,4.4,44.4,-0.005,0.019,-1.021,4.1,-4.1,0.0,0.0069,-0.0095,-0.0428,601,819,659,825,0.00,0.01,2.61,0.18,0.3007,1,1,0,0.01,0.00,-0.02,0.00,0.00,0.00,0.20,210,31
6716,-1.3,-2.3,33.5,-0.019,0.054,-1.012,4.1,-4.1,0.0,0.0069,-0.0032,-0.0264,693,751,728,733,0.00,0.01,2.61,0.18,0.3007,1,1,0,0.01,0.00,-0.02,0.00,0.00,0.00,0.19,210,31
6727,-0.3,-3.3,-75.0,0.072,-0.046,-0.968,4.1,-4.1,0.0,0.0059,-0.0023,0.0603,813,630,848,614,0.00,0.01,2.61,0.18,0.3007,1,1,0,0.01,0.00,-0.02,0.00,0.00,0.00,0.18,210,31
6737,-1.4,4.0,45.5,0.014,0.010,-1.016,4.1,-4.1,0.0,0.0070,-0.0097,-0.0387,599,818,657,830,0.00,0.01,2.61,0.18,0.3007,1,1,0,0.01,0.00,-0.02,0.00,0.00,0.00,0.17,210,31
6747,-0.9,-0.8,38.0,-0.020,0.053,-1.050,4.1,-4.1,0.0,0.0067,-0.0045,-0.0214,689,748,730,738,0.00,0.01,2.61,0.18,0.3007,1,1,0,0.01,0.00,-0.02,0.00,0.00,0.00,0.17,211,31
6757,0.5,-3.5,-75.5,0.075,-0.067,-0.950,4.1,-4.2,0.0,0.0051,-0.0023,0.0603,812,626,848,618,0.00,0.01,2.61,0.18,0.3007,1,1,0,0.01,0.00,-0.02,0.00,0.00,0.00,0.17,211,31
6767,-0.9,4.8,42.2,0.010,0.001,-1.005,4.1,-4.1,0.0,0.0066,-0.0105,-0.0334,605,808,667,825,0.00,0.01,2.61,0.18,0.3007,1,1,0,0.01,0.00,-0.02,0.00,0.00,0.00,0.18,211,31
6777,-0.3,0.5,36.9,-0.027,0.058,-1.061,4.1,-4.1,0.0,0.0059,-0.0055,-0.0208,691,745,729,740,0.00,0.01,2.61,0.18,0.3007,1,1,0,0.01,0.00,-0.02,0.00,0.00,0.00,0.18,211,31
6787,0.8,-3.0,-74.0,0.083,-0.048,-0.925,4.1,-4.2,0.0,0.0049,-0.0029,0.0591,809,627,848,622,0.00,0.01,2.61,0.18,0.3007,1,1,0,0.01,0.00,-0.02,0.00,0.00,0.00,0.19,211,31
6797,-0.2,5.5,42.6,0.006,0.012,-1.022,4.1,-4.1,0.0,0.0059,-0.0112,-0.0338,605,804,667,828,0.00,0.01,2.61,0.18,0.3007,1,1,0,0.01,0.00,-0.02,0.00,0.00,0.00,0.18,210,31
6807,-0.5,1.0,35.6,-0.036,0.053,-1.054,4.1,-4.1,0.0,0.0063,-0.0055,-0.0195,694,744,731,735,0.00,0.01,2.61,0.18,0.3007,1,1,0,0.01,0.00,-0.02,0.00,0.00,0.00,0.17,210,31
6817,1.3,-3.4,-74.3,0.074,-0.041,-0.942,4.1,-4.1,0.0,0.0042,-0.0022,0.0597,812,625,845,623,0.00,0.01,2.61,0.18,0.3007,1,1,0,0.01,0.00,-0.02,0.00,0.00,0.00,0.18,209,31
6828,0.3,6.1,39.2,-0.004,0.015,-1.019,4.1,-4.1,0.0,0.0051,-0.0115,-0.0391,606,806,664,828,0.00,0.01,2.61,0.18,0.3007,1,1,0,0.01,0.00,-0.02,0.00,0.00,0.00,0.19,209,31
6838,0.8,0.2,40.5,-0.035,0.071,-1.057,4.1,-4.1,0.0,0.0049,-0.0053,-0.0266,694,746,727,738,0.00,0.01,2.61,0.18,0.3007,1,1,0,0.01,0.00,-0.02,0.00,0.00,0.00,0.18,209,31
6848,1.2,-2.6,-74.6,0.060,-0.040,-0.940,4.1,-4.1,0.0,0.0044,-0.0030,0.0600,811,626,846,621,0.00,0.01,2.61,0.18,0.3007,1,1,0,0.01,0.00,-0.02,0.00,0.00,0.00,0.17,209,31
6858,0.5,5.3,40.1,-0.009,0.026,-1.035,4.1,-4.1,0.0,0.0051,-0.0111,-0.0346,603,809,664,829,0.00,0.01,2.61,0.18,0.3007,1,1,0,0.01,0.00,-0.02,0.00,0.00,0.00,0.16,210,31
6868,-0.1,-0.9,40.3,-0.038,0.058,-1.046,4.1,-4.1,0.0,0.0057,-0.0046,-0.0319,696,746,728,734,0.00,0.01,2.61,0.18,0.3007,1,1,0,0.01,0.00,-0.02,0.00,0.00,0.00,0.16,210,31
6878,1.1,-2.5,-75.2,0.063,-0.051,-0.936,4.1,-4.1,0.0,0.0048,-0.0039,0.0595,813,621,852,618,0.00,0.01,2.61,0.18,0.3007,1,1,0,0.01,0.00,-0.02,0.00,0.00,0.00,0.15,210,31
6888,-0.4,5.5,36.1,0.008,0.003,-1.019,4.1,-4.1,0.0,0.0060,-0.0113,-0.0342,605,808,664,828,0.00,0.01,2.61,0.18,0.3007,1,1,0,0.01,0.00,-0.02,0.00,0.00,0.00,0.15,210,31
6898,0.5,-0.4,38.7,-0.023,0.051,-1.038,4.1,-4.1,0.0,0.0051,-0.0052,-0.0306,695,739,732,739,0.00,0.01,2.61,0.18,0.3007,1,1,0,0.01,0.00,-0.02,0.00,0.00,0.00,0.16,210,31
6908,1.5,-0.9,-74.1,0.067,-0.042,-0.962,4.1,-4.1,0.0,0.0043,-0.0051,0.0587,813,620,850,621,0.00,0.01,2.61,0.18,0.3007,1,1,0,0.01,0.00,-0.02,0.00,0.00,0.00,0.17,209,31
6918,0.4,6.0,39.7,-0.003,0.011,-1.011,4.1,-4.1,0.0,0.0053,-0.0117,-0.0342,612,799,674,820,0.00,0.01,2.61,0.18,0.3007,1,1,0,0.01,0.00,-0.02,0.00,0.00,0.00,0.18,209,31
6928,0.1,-0.6,36.6,-0.031,0.061,-1.056,4.1,-4.1,0.0,0.0055,-0.0049,-0.0290,717,782,757,777,0.00,0.01,2.61,0.18,0.3178,1,1,0,0.01,0.00,-0.02,0.00,0.00,0.00,0.18,210,31
6938,0.9,-1.5,-75.2,0.065,-0.045,-0.955,4.1,-4.1,0.0,0.0053,-0.0042,0.0593,845,657,883,649,0.00,0.01,2.61,0.18,0.3178,1,1,0,0.01,0.00,-0.02,0.00,0.00,0.00,0.17,210,31
6949,0.5,5.2,37.8,0.008,0.014,-1.017,4.1,-4.1,0.0,0.0050,-0.0106,-0.0356,669,860,725,877,0.00,0.01,2.61,0.18,0.3306,1,1,0,0.01,0.00,-0.02,0.00,0.00,0.00,0.16,210,31
6959,1.1,0.0,41.2,-0.034,0.071,-1.026,4.1,-4.1,0.0,0.0050,-0.0054,-0.0247,738,809,778,806,0.00,0.01,2.61,0.18,0.3306,1,1,0,0.01,0.00,-0.02,0.00,0.00,0.00,0.17,210,31
6969,1.4,-0.9,-74.6,0.069,-0.051,-0.993,4.1,-4.1,0.0,0.0042,-0.0047,0.0600,869,679,907,676,0.00,0.01,2.61,0.18,0.3306,1,1,0,0.01,0.00,-0.02,0.00,0.00,0.00,0.18,210,31
6979,0.5,5.5,36.9,0.007,0.006,-1.022,4.1,-4.1,0.0,0.0051,-0.0113,-0.0293,670,857,728,876,0.00,0.01,2.61,0.18,0.3306,1,1,0,0.01,0.00,-0.02,0.00,0.00,0.00,0.18,209,31
6989,0.3,0.0,40.7,-0.038,0.054,-1.008,4.1,-4.1,0.0,0.0056,-0.0054,-0.0240,740,808,780,803,0.00,0.01,2.61,0.18,0.3306,1,1,0,0.01,0.00,-0.02,0.00,0.00,0.00,0.19,209,31
6999,1.3,-1.4,-75.4,0.060,-0.058,-0.984,4.1,-4.1,0.0,0.0044,-0.0043,0.0607,871,677,906,677,0.00,0.01,2.61,0.18,0.3306,1,1,0,0.01,0.00,-0.02,0.00,0.00,0.00,0.17,209,31
7009,0.9,6.3,38.7,-0.007,0.000,-1.006,4.1,-4.1,0.0,0.0047,-0.0121,-0.0307,667,855,726,882,0.00,0.01,2.61,0.18,0.3306,1,1,0,0.01,0.00,-0.02,0.00,0.00,0.00,0.16,209,30
7019,0.5,-0.2,39.3,-0.041,0.056,-1.027,4.1,-4.1,0.0,0.0053,-0.0052,-0.0226,744,803,782,802,0.00,0.01,2.61,0.18,0.3306,1,1,0,0.01,0.00,-0.02,0.00,0.00,0.00,0.16,208,30
7029,2.3,-2.9,-72.7,0.071,-0.039,-0.964,4.1,-4.1,0.0,0.0033,-0.0028,0.0585,867,678,903,683,0.00,0.01,2.61,0.18,0.3306,1,1,0,0.01,0.00,-0.02,0.00,0.00,0.00,0.15,208,30
7039,1.1,5.6,34.7,-0.005,-0.009,-1.038,4.1,-4.1,0.0,0.0045,-0.0114,-0.0304,669,856,727,879,0.00,0.01,2.61,0.17,0.3306,1,1,0,0.01,0.00,-0.02,0.00,0.00,0.00,0.16,208,30
7050,-0.2,-1.1,42.6,-0.023,0.059,-1.033,4.1,-4.1,0.0,0.0059,-0.0045,-0.0337,746,808,779,798,0.00,0.01,2.61,0.17,0.3306,1,1,0,0.01,0.00,-0.02,0.00,0.00,0.00,0.17,208,30
7060,0.0,-4.1,-74.9,0.083,-0.074,-0.948,4.1,-4.1,0.0,0.0057,-0.0016,0.0603,871,680,902,678,0.00,0.01,2.61,0.17,0.3306,1,1,0,0.01,0.00,-0.02,0.00,0.00,0.00,0.18,209,30
7070,0.0,5.7,36.1,0.013,0.007,-1.022,4.1,-4.1,0.0,0.0053,-0.0114,-0.0369,666,859,724,881,0.00,0.01,2.61,0.17,0.3306,1,1,0,0.01,0.00,-0.02,0.00,0.00,0.00,0.18,209,30
7080,-0.3,-0.2,43.6,-0.018,0.054,-1.013,4.1,-4.0,0.0,0.0061,-0.0054,-0.0345,745,811,778,797,0.00,0.01,2.61,0.17,0.3306,1,1,0,0.01,0.00,-0.02,0.00,0.00,0.00,0.17,209,30
7090,-0.4,-3.0,-74.4,0.086,-0.067,-0.946,4.1,-4.1,0.0,0.0061,-0.0028,0.0598,869,682,904,676,0.00,0.01,2.61,0.17,0.3306,1,1,0,0.01,0.00,-0.02,0.00,0.00,0.00,0.15,209,30
7100,-0.5,5.6,35.5,0.017,0.010,-1.020,4.1,-4.1,0.0,0.0062,-0.0113,-0.0367,664,862,727,878,0.00,0.01,2.61,0.17,0.3306,1,1,0,0.01,0.00,-0.02,0.00,0.00,0.00,0.17,210,30
7110,-1.0,-1.0,42.2,-0.012,0.059,-1.065,4.1,-4.1,0.0,0.0068,-0.0047,-0.0334,743,811,781,795,0.00,0.01,2.61,0.17,0.3306,1,1,0,0.01,0.00,-0.02,0.00,0.00,0.00,0.18,209,30
7120,0.0,-3.7,-75.2,0.083,-0.047,-0.940,4.1,-4.1,0.0,0.0058,-0.0020,0.0604,874,679,908,670,0.00,0.01,2.61,0.17,0.3306,1,1,0,0.01,0.00,-0.02,0.00,0.00,0.00,0.18,209,30
7130,-0.5,4.6,35.8,0.007,0.002,-1.024,4.1,-4.1,0.0,0.0063,-0.0105,-0.0313,664,864,726,877,0.00,0.01,2.61,0.17,0.3306,1,1,0,0.01,0.00,-0.02,0.00,0.00,0.00,0.18,210,30
7140,-1.0,-0.4,41.6,-0.023,0.058,-1.057,4.1,-4.0,0.0,0.0067,-0.0053,-0.0329,732,820,774,805,0.00,0.01,2.61,0.17,0.3306,1,1,0,0.01,0.00,-0.02,0.00,0.00,0.00,0.17,210,30
7150,-0.1,-4.7,-76.3,0.069,-0.057,-0.940,4.1,-4.1,0.0,0.0059,-0.0015,0.0607,876,680,908,667,0.00,0.01,2.61,0.17,0.3306,1,1,0,0.01,0.00,-0.02,0.00,0.00,0.00,0.16,210,30
7160,-0.2,4.9,37.8,0.001,0.005,-1.014,4.1,-4.1,0.0,0.0060,-0.0107,-0.0328,663,865,724,879,0.00,0.01,2.61,0.17,0.3306,1,1,0,0.01,0.00,-0.02,0.01,0.00,0.00,0.16,210,30
7171,-0.3,0.0,39.1,-0.028,0.064,-1.050,4.1,-4.0,0.0,0.0061,-0.0057,-0.0310,735,815,778,802,0.00,0.01,2.61,0.17,0.3306,1,1,0,0.01,0.00,-0.02,0.00,0.00,0.00,0.16,210,30
7181,1.1,-3.3,-74.1,0.061,-0.066,-0.959,4.1,-4.1,0.0,0.0048,-0.0025,0.0589,874,681,904,672,0.00,0.01,2.61,0.17,0.3306,1,1,0,0.01,0.00,-0.02,0.00,0.00,0.00,0.17,209,30
7191,0.9,6.0,38.3,-0.014,0.020,-1.008,4.1,-4.1,0.0,0.0048,-0.0117,-0.0331,671,853,732,874,0.00,0.01,2.61,0.17,0.3306,1,1,0,0.01,0.00,-0.02,0.01,0.00,0.00,0.17,209,30
7201,0.0,0.0,39.4,-0.030,0.060,-1.045,4.1,-4.0,0.0,0.0057,-0.0056,-0.0312,738,815,775,802,0.00,0.01,2.61,0.17,0.3306,1,1,0,0.01,0.00,-0.02,0.00,0.00,0.00,0.17,209,30
7211,0.2,-3.2,-74.0,0.073,-0.060,-0.966,4.1,-4.1,0.0,0.0054,-0.0027,0.0587,872,682,904,673,0.00,0.01,2.61,0.17,0.3306,1,1,0,0.01,0.00,-0.02,0.00,0.00,0.00,0.16,208,30
7221,0.0,6.1,35.2,0.004,0.006,-0.995,4.1,-4.1,0.0,0.0057,-0.0120,-0.0279,662,863,723,882,0.00,0.01,2.61,0.17,0.3306,1,1,0,0.01,0.00,-0.02,0.01,0.00,0.00,0.15,208,30
7231,0.0,0.4,42.1,-0.022,0.054,-1.034,4.1,-4.1,0.0,0.0060,-0.0053,-0.0251,739,812,777,802,0.00,0.01,2.61,0.17,0.3306,1,1,0,0.01,0.00,-0.02,0.00,0.00,0.00,0.16,208,30
7241,0.5,-0.6,-75.0,0.066,-0.054,-0.965,4.1,-4.1,0.0,0.0053,-0.0053,0.0602,869,677,910,675,0.00,0.01,2.61,0.17,0.3306,1,1,0,0.01,0.00,-0.02,0.00,0.00,0.00,0.17,208,30
7251,0.0,6.2,34.4,0.000,0.002,-1.016,4.1,-4.1,0.0,0.0059,-0.0121,-0.0273,663,860,726,882,0.00,0.01,2.61,0.17,0.3306,1,1,0,0.01,0.00,-0.02,0.01,0.00,0.00,0.17,208,30
7261,-0.1,-1.5,42.4,-0.006,0.074,-1.038,4.1,-4.0,0.0,0.0061,-0.0041,-0.0256,738,812,776,805,0.00,0.01,2.61,0.17,0.3306,1,1,0,0.01,0.00,-0.02,0.01,0.00,0.00,0.17,208,30
7271,0.8,-2.6,-75.1,0.074,-0.046,-0.983,4.1,-4.1,0.0,0.0050,-0.0035,0.0602,868,678,910,675,0.00,0.01,2.61,0.17,0.3306,1,1,0,0.01,0.00,-0.02,0.01,0.00,0.00,0.16,208,30
7282,-0.2,4.8,38.8,-0.007,0.013,-1.016,4.1,-4.1,0.0,0.0061,-0.0107,-0.0307,665,860,727,879,0.00,0.01,2.61,0.17,0.3306,1,1,0,0.01,0.00,-0.02,0.01,0.00,0.00,0.15,208,30
7292,0.2,-1.8,42.8,-0.023,0.072,-1.017,4.1,-4.0,0.0,0.0056,-0.0039,-0.0257,739,811,775,805,0.00,0.01,2.61,0.17,0.3306,1,1,0,0.01,0.00,-0.02,0.01,0.00,0.00,0.17,208,30
7302,1.1,-2.3,-74.4,0.056,-0.043,-0.973,4.1,-4.1,0.0,0.0047,-0.0035,0.0598,870,681,905,675,0.00,0.01,2.61,0.17,0.3306,1,1,0,0.01,0.00,-0.02,0.01,0.00,0.00,0.19,208,30
