t_ms,gx,gy,gz,ax,ay,az,sp_x,sp_y,sp_z,pid_x,pid_y,pid_z,m1,m2,m3,m4,roll,pitch,yaw,alt_m,thr,mode,armed,sat,sp_roll,sp_pitch,v_fwd,v_right,vt_fwd,vt_right,range_m,flow_q,est_flags
#
# chuyen bay moi, moc boot_ms = 70811
#   nhip Hz = 100
10,-2.1,7.0,3.5,0.012,0.035,-1.020,-0.8,-3.0,0.0,0.0008,-0.0108,-0.0173,292,361,336,399,0.01,0.01,-0.48,0.12,0.1000,1,1,0,0.01,0.00,-0.50,-0.14,0.01,-0.07,0.12,183,30
20,8.9,-7.4,-1.8,0.074,0.203,-0.989,-0.6,-2.9,0.0,-0.0091,0.0038,-0.0156,326,377,309,375,0.01,0.01,-0.48,0.12,0.1000,1,1,0,0.01,0.00,-0.50,-0.13,0.01,-0.07,0.13,183,30
30,-1.8,7.5,-2.8,-0.154,-0.269,-1.042,-0.9,-3.0,0.0,-0.0030,-0.0082,-0.0156,322,355,311,399,0.01,0.01,-0.48,0.12,0.1000,1,1,0,0.01,0.00,-0.50,-0.14,0.01,-0.07,0.13,183,30
40,-1.6,1.4,0.9,0.062,0.164,-0.927,-0.6,-3.1,0.0,0.0007,-0.0052,-0.0164,283,367,353,385,0.01,0.01,-0.48,0.12,0.1000,1,1,0,0.01,0.00,-0.51,-0.14,0.01,-0.07,0.13,183,30
50,5.3,-3.2,0.6,0.041,-0.032,-0.988,-0.9,-3.0,0.0,-0.0083,0.0017,-0.0166,341,367,290,390,0.01,0.01,-0.48,0.12,0.1000,1,1,0,0.01,0.00,-0.50,-0.14,0.01,-0.07,0.13,183,30
60,0.0,1.9,-4.0,-0.104,-0.073,-0.985,-0.6,-3.0,0.0,-0.0009,-0.0057,-0.0149,300,360,336,392,0.01,0.01,-0.48,0.12,0.1000,1,1,0,0.01,0.00,-0.51,-0.14,0.01,-0.07,0.13,183,30
70,-2.7,-2.9,4.0,0.109,-0.080,-1.020,-0.9,-3.0,0.0,0.0015,-0.0008,-0.0173,310,359,319,400,0.01,0.01,-0.48,0.12,0.1000,1,1,0,0.01,0.00,-0.50,-0.14,0.01,-0.07,0.13,183,30
80,1.5,-5.5,-1.1,0.014,0.049,-1.010,-0.7,-3.0,0.0,-0.0021,0.0019,-0.0159,315,379,316,378,0.01,0.01,-0.48,0.12,0.1000,1,1,0,0.01,0.00,-0.51,-0.14,0.01,-0.07,0.13,183,30
90,-1.7,6.3,0.1,0.053,-0.035,-1.024,-0.9,-3.0,0.0,0.0005,-0.0102,-0.0162,310,364,325,390,0.01,0.01,-0.48,0.12,0.1000,1,1,0,0.01,0.00,-0.51,-0.14,0.01,-0.07,0.12,183,30
100,0.1,2.1,1.5,-0.017,-0.084,-0.965,-0.6,-3.1,0.0,-0.0004,-0.0110,-0.0168,283,348,346,410,0.01,0.01,-0.48,0.12,0.1000,1,1,0,0.01,0.00,-0.51,-0.14,0.01,-0.07,0.12,183,30
110,2.7,-5.7,-1.0,0.115,0.082,-1.019,-0.9,-3.0,0.0,-0.0039,0.0019,-0.0159,320,373,312,382,0.01,0.01,-0.48,0.12,0.1000,1,1,0,0.01,0.00,-0.51,-0.14,0.01,-0.07,0.12,183,30
120,-1.2,6.9,-1.6,-0.024,-0.109,-1.019,-0.7,-3.1,0.0,0.0003,-0.0108,-0.0158,293,338,342,415,0.01,0.01,-0.48,0.12,0.1000,1,1,0,0.01,0.00,-0.51,-0.14,0.01,-0.07,0.13,183,30
130,4.2,-13.4,1.2,0.133,0.066,-0.959,-0.9,-3.0,0.0,-0.0055,0.0091,-0.0167,327,369,303,389,0.01,0.01,-0.48,0.12,0.1000,1,1,0,0.01,0.00,-0.51,-0.14,0.01,-0.07,0.13,183,30
141,-9.4,9.7,-1.2,-0.117,-0.260,-0.969,-0.7,-3.0,0.0,0.0088,-0.0106,-0.0157,302,381,332,373,0.01,0.01,-0.48,0.12,0.1000,1,1,0,0.01,0.00,-0.51,-0.14,0.01,-0.07,0.12,183,30
151,3.4,-2.4,-1.7,0.133,0.214,-0.988,-0.8,-3.1,0.0,-0.0039,-0.0024,-0.0156,300,363,335,389,0.01,0.01,-0.48,0.12,0.1000,1,1,0,0.01,0.00,-0.51,-0.14,0.01,-0.07,0.13,183,30
161,3.8,-3.6,2.0,-0.002,-0.036,-1.000,-0.7,-2.9,0.0,-0.0048,-0.0001,-0.0167,330,373,301,383,0.01,0.01,-0.48,0.12,0.1000,1,1,0,0.01,0.00,-0.51,-0.14,0.01,-0.07,0.13,183,30
171,-2.6,3.9,-4.0,-0.093,-0.098,-1.033,-0.9,-3.0,0.0,0.0000,-0.0088,-0.0150,304,355,332,396,0.01,0.01,-0.48,0.12,0.1000,1,1,0,0.01,0.00,-0.51,-0.14,0.01,-0.07,0.13,183,30
181,0.5,-7.7,3.9,0.089,0.103,-1.025,-0.7,-3.0,0.0,-0.0001,0.0032,-0.0171,303,375,328,381,0.01,0.01,-0.48,0.12,0.1000,1,1,0,0.01,0.00,-0.51,-0.14,0.01,-0.07,0.12,183,30
191,2.3,-7.0,-1.0,0.035,0.000,-0.942,-0.8,-2.9,0.0,-0.0035,0.0033,-0.0158,342,381,292,372,0.01,0.01,-0.48,0.12,0.1000,1,1,0,0.01,0.00,-0.51,-0.14,0.01,-0.07,0.12,183,30
201,-4.8,11.8,4.7,-0.133,-0.128,-1.043,-0.6,-3.0,0.0,0.0052,-0.0149,-0.0177,279,369,347,392,0.01,0.01,-0.48,0.12,0.1000,1,1,0,0.01,0.00,-0.51,-0.14,0.01,-0.07,0.12,183,30
211,5.8,-12.0,-2.3,0.136,0.196,-0.843,-0.8,-3.0,0.0,-0.0069,0.0082,-0.0155,321,359,313,394,0.01,0.01,-0.48,0.12,0.1000,1,1,0,0.01,0.00,-0.51,-0.14,0.01,-0.07,0.13,183,30
221,-0.5,4.5,2.5,-0.125,-0.157,-1.110,-0.7,-2.9,0.0,-0.0017,-0.0025,-0.0169,329,380,301,377,0.01,0.01,-0.48,0.12,0.1000,1,1,0,0.01,0.00,-0.51,-0.14,0.01,-0.07,0.13,183,30
231,-8.8,0.9,-1.6,0.047,-0.108,-1.002,-0.8,-3.0,0.0,0.0078,-0.0047,-0.0157,301,375,332,379,0.01,0.01,-0.48,0.12,0.1000,1,1,0,0.01,0.00,-0.51,-0.15,0.01,-0.07,0.12,183,30
242,7.5,-8.0,0.0,0.072,0.187,-1.056,-0.7,-2.9,0.0,-0.0078,0.0055,-0.0163,333,400,295,359,0.01,0.01,-0.48,0.12,0.1000,1,1,0,0.01,0.00,-0.51,-0.14,0.01,-0.07,0.12,183,30
252,-3.9,8.8,-5.1,-0.112,-0.190,-1.036,-0.7,-3.0,0.0,0.0028,-0.0127,-0.0145,307,357,332,390,0.01,0.01,-0.48,0.12,0.1000,1,1,0,0.01,0.00,-0.51,-0.14,0.01,-0.07,0.12,183,30
262,4.7,-9.6,1.2,0.139,0.112,-0.995,-0.8,-2.9,0.0,-0.0059,0.0059,-0.0164,338,382,296,371,0.01,0.01,-0.48,0.12,0.1000,1,1,0,0.01,0.00,-0.51,-0.14,0.01,-0.07,0.13,183,30
272,-4.3,15.1,-0.3,-0.033,-0.164,-1.004,-0.7,-3.0,0.0,0.0027,-0.0178,-0.0160,290,356,343,399,0.01,0.01,-0.48,0.12,0.1000,1,1,0,0.01,0.00,-0.51,-0.14,0.01,-0.07,0.13,183,30
282,3.8,-4.3,-0.3,0.062,0.114,-0.887,-0.8,-3.1,0.0,-0.0041,-0.0018,-0.0159,303,362,330,392,0.01,0.01,-0.48,0.12,0.1000,1,1,0,0.01,0.00,-0.51,-0.14,0.01,-0.07,0.12,183,30
292,-1.1,5.8,2.8,0.025,-0.118,-0.905,-0.7,-3.1,0.0,0.0001,-0.0098,-0.0169,304,351,327,406,0.01,0.01,-0.48,0.12,0.1000,1,1,0,0.01,0.00,-0.52,-0.14,0.01,-0.07,0.13,183,30
302,-2.9,-0.6,-1.2,0.043,-0.041,-1.003,-0.8,-3.0,0.0,0.0020,-0.0053,-0.0158,300,366,333,388,0.01,0.01,-0.48,0.12,0.1000,1,1,0,0.01,0.00,-0.51,-0.15,0.01,-0.07,0.13,183,30
312,0.3,8.9,1.6,-0.008,-0.044,-0.970,-0.6,-3.0,0.0,-0.0013,-0.0127,-0.0166,291,353,341,402,0.01,0.01,-0.48,0.12,0.1000,1,1,0,0.01,0.00,-0.52,-0.14,0.01,-0.07,0.13,183,30
322,-1.4,-5.8,0.4,0.126,0.061,-0.956,-0.8,-3.1,0.0,0.0004,0.0019,-0.0163,310,368,320,389,0.01,0.01,-0.48,0.12,0.1000,1,1,0,0.01,0.00,-0.51,-0.14,0.01,-0.07,0.12,183,30
332,4.1,6.4,-1.0,-0.191,-0.203,-1.018,-0.6,-2.9,0.0,-0.0053,-0.0089,-0.0159,324,366,309,388,0.01,0.01,-0.48,0.12,0.1000,1,1,0,0.01,0.00,-0.52,-0.14,0.01,-0.07,0.13,183,30
342,-11.1,7.0,0.3,0.205,0.088,-1.035,-0.7,-3.1,0.0,0.0101,-0.0109,-0.0163,269,367,363,389,0.01,0.01,-0.48,0.12,0.1000,1,1,0,0.01,0.00,-0.52,-0.15,0.01,-0.07,0.13,183,30
353,18.8,-7.0,-1.9,-0.062,0.077,-0.979,-0.7,-2.9,0.0,-0.0193,0.0051,-0.0156,358,359,276,394,0.01,0.01,-0.48,0.12,0.1000,1,1,0,0.01,0.00,-0.52,-0.14,0.01,-0.07,0.13,183,30
363,-14.8,13.0,-1.6,-0.028,-0.226,-1.060,-0.7,-3.1,0.0,0.0138,-0.0170,-0.0155,281,358,354,394,0.01,0.01,-0.48,0.12,0.1000,1,1,0,0.01,0.00,-0.52,-0.15,0.01,-0.07,0.12,183,30
373,5.1,-11.9,-0.5,0.095,0.059,-0.908,-0.6,-3.0,0.0,-0.0056,0.0076,-0.0157,324,373,311,379,0.01,0.01,-0.48,0.12,0.1000,1,1,0,0.01,0.00,-0.52,-0.14,0.01,-0.07,0.13,183,30
383,0.8,5.1,-0.4,0.047,0.015,-0.991,-0.8,-3.0,0.0,-0.0022,-0.0085,-0.0159,315,366,318,389,0.01,0.01,-0.48,0.12,0.1000,1,1,0,0.01,0.00,-0.52,-0.15,0.01,-0.07,0.13,183,30
393,0.8,-2.5,-0.2,-0.001,-0.119,-0.937,-0.6,-3.0,0.0,-0.0017,-0.0013,-0.0159,300,349,335,404,0.01,0.01,-0.48,0.12,0.1000,1,1,0,0.01,0.00,-0.52,-0.14,0.01,-0.07,0.13,183,30
403,-1.2,-2.9,5.0,0.042,-0.029,-0.978,-0.8,-3.1,0.0,-0.0003,-0.0010,-0.0176,309,365,319,394,0.01,0.01,-0.48,0.12,0.1000,1,1,0,0.01,0.00,-0.52,-0.15,0.01,-0.07,0.13,183,30
413,-2.5,-1.4,-0.3,-0.015,-0.041,-0.966,-0.5,-3.0,0.0,0.0019,-0.0020,-0.0160,311,379,322,376,0.01,0.01,-0.48,0.12,0.1000,1,1,0,0.01,0.00,-0.52,-0.14,0.01,-0.07,0.13,183,30
423,1.8,0.1,-0.2,0.009,-0.021,-1.015,-0.8,-2.9,0.0,-0.0030,-0.0039,-0.0161,326,371,306,385,0.01,0.01,-0.48,0.12,0.1000,1,1,0,0.01,0.00,-0.52,-0.15,0.01,-0.07,0.13,183,30
433,-3.2,0.2,3.0,0.048,-0.067,-0.988,-0.6,-3.0,0.0,0.0034,-0.0043,-0.0169,300,378,330,379,0.01,0.01,-0.48,0.12,0.1000,1,1,0,0.01,0.00,-0.52,-0.14,0.01,-0.07,0.12,183,30
443,-0.2,3.9,-5.6,0.006,-0.097,-1.021,-0.8,-3.0,0.0,-0.0008,-0.0078,-0.0144,320,366,316,385,0.01,0.01,-0.48,0.12,0.1000,1,1,0,0.01,0.00,-0.52,-0.15,0.01,-0.07,0.12,183,30
453,-2.3,-0.1,-0.9,0.045,0.065,-1.002,-0.6,-3.1,0.0,0.0013,-0.0037,-0.0158,289,366,346,386,0.01,0.01,-0.48,0.12,0.1000,1,1,0,0.01,0.00,-0.52,-0.15,0.01,-0.07,0.13,183,30
463,2.5,-7.1,0.3,0.019,0.024,-0.945,-0.7,-3.0,0.0,-0.0062,0.0058,-0.0160,347,375,286,379,0.01,0.01,-0.48,0.12,0.1000,1,1,0,0.01,0.00,-0.52,-0.14,0.01,-0.07,0.13,183,30
474,-5.1,10.8,-1.3,-0.102,-0.227,-1.037,-0.6,-3.0,0.0,0.0042,-0.0148,-0.0155,287,367,348,386,0.01,0.01,-0.48,0.12,0.1000,1,1,0,0.01,0.00,-0.52,-0.15,0.01,-0.07,0.13,183,30
484,0.2,-4.8,-3.5,0.093,0.235,-0.932,-0.7,-3.0,0.0,0.0000,0.0001,-0.0146,313,374,326,374,0.01,0.01,-0.48,0.12,0.1000,1,1,0,0.01,0.00,-0.52,-0.15,0.01,-0.07,0.13,183,30
494,4.3,9.0,6.9,0.003,-0.135,-1.106,-0.6,-3.0,0.0,-0.0053,-0.0130,-0.0180,311,360,314,403,0.01,0.01,-0.48,0.12,0.1000,1,1,0,0.01,0.00,-0.52,-0.14,0.01,-0.07,0.13,183,30
504,-5.7,1.2,-2.9,-0.106,-0.024,-1.027,-0.8,-3.1,0.0,0.0044,-0.0058,-0.0150,296,362,342,387,0.01,0.01,-0.48,0.12,0.1000,1,1,0,0.01,0.00,-0.52,-0.15,0.01,-0.07,0.13,183,30
514,3.6,0.5,1.5,0.084,0.064,-1.034,-0.5,-3.1,0.0,-0.0028,-0.0058,-0.0167,302,364,327,394,0.01,0.01,-0.48,0.12,0.1000,1,1,0,0.01,0.00,-0.52,-0.14,0.01,-0.07,0.12,183,30
524,1.3,-4.6,0.8,-0.036,0.000,-0.999,-0.8,-2.9,0.0,-0.0024,0.0008,-0.0163,333,373,300,381,0.01,0.01,-0.48,0.12,0.1000,1,1,0,0.01,0.00,-0.52,-0.15,0.01,-0.07,0.13,183,30
534,-3.9,8.7,2.4,-0.056,-0.123,-1.063,-0.6,-3.0,0.0,0.0031,-0.0124,-0.0169,290,365,340,393,0.01,0.01,-0.48,0.12,0.1000,1,1,0,0.01,0.00,-0.53,-0.14,0.01,-0.07,0.13,183,30
544,3.4,-2.8,-4.2,0.102,0.128,-0.878,-0.7,-3.1,0.0,-0.0037,-0.0033,-0.0149,308,357,329,393,0.01,0.01,-0.48,0.12,0.1000,1,1,0,0.01,0.00,-0.52,-0.15,0.01,-0.07,0.13,183,30
554,0.6,-2.0,0.4,-0.116,-0.092,-0.991,-0.7,-3.0,0.0,-0.0050,-0.0003,-0.0162,332,363,301,392,0.01,0.01,-0.48,0.12,0.1000,1,1,0,0.01,0.00,-0.53,-0.14,0.01,-0.07,0.12,183,30
564,-8.3,-0.9,0.9,0.109,-0.063,-0.979,-0.6,-3.0,0.0,0.0080,-0.0036,-0.0163,289,380,343,375,0.01,0.01,-0.48,0.12,0.1000,1,1,0,0.01,0.00,-0.53,-0.15,0.01,-0.07,0.12,183,30
575,7.6,-7.1,-5.0,-0.063,0.075,-1.077,-0.8,-2.9,0.0,-0.0088,0.0033,-0.0144,346,375,291,375,0.01,0.01,-0.48,0.12,0.1000,1,1,0,0.01,0.00,-0.52,-0.15,0.01,-0.07,0.12,183,30
585,-4.4,7.7,-2.5,0.052,-0.088,-1.041,-0.5,-3.1,0.0,0.0040,-0.0141,-0.0149,283,354,354,396,0.01,0.01,-0.48,0.12,0.1000,1,1,0,0.01,0.00,-0.53,-0.15,0.01,-0.07,0.12,183,30
595,5.6,-9.7,4.5,0.077,0.102,-0.978,-0.8,-3.0,0.0,-0.0067,0.0058,-0.0172,341,379,290,378,0.01,0.01,-0.48,0.12,0.1000,1,1,0,0.01,0.00,-0.52,-0.15,0.01,-0.07,0.12,182,30
605,-4.2,12.9,0.7,-0.096,-0.192,-1.024,-0.6,-3.0,0.0,0.0033,-0.0170,-0.0161,284,358,348,398,0.01,0.01,-0.48,0.12,0.1000,1,1,0,0.01,0.00,-0.53,-0.15,0.01,-0.07,0.12,182,30
615,0.7,-0.6,-0.6,0.146,0.171,-0.913,-0.6,-3.1,0.0,-0.0006,-0.0040,-0.0157,300,373,335,380,0.01,0.01,-0.48,0.12,0.1000,1,1,0,0.01,0.00,-0.52,-0.15,0.01,-0.07,0.12,182,30
625,6.5,5.7,3.5,-0.127,-0.047,-0.882,-0.7,-3.0,0.0,-0.0075,-0.0097,-0.0171,318,348,311,410,0.01,0.01,-0.48,0.12,0.1000,1,1,0,0.01,0.00,-0.53,-0.15,0.01,-0.07,0.12,182,30
635,-6.5,1.9,0.6,0.061,0.002,-1.053,-0.6,-3.1,0.0,0.0063,-0.0065,-0.0161,292,377,341,378,0.01,0.01,-0.48,0.12,0.1000,1,1,0,0.01,0.00,-0.53,-0.15,0.01,-0.07,0.12,182,30
645,4.0,1.6,0.1,-0.045,-0.077,-0.969,-0.7,-3.0,0.0,-0.0050,-0.0056,-0.0162,319,360,313,396,0.01,0.01,-0.48,0.12,0.1000,1,1,0,0.01,0.00,-0.53,-0.15,0.01,-0.07,0.12,182,30
655,-2.7,-5.7,0.2,0.094,0.172,-1.011,-0.7,-3.1,0.0,0.0029,0.0002,-0.0163,308,383,324,373,0.01,0.01,-0.48,0.12,0.1000,1,1,0,0.01,0.00,-0.53,-0.15,0.01,-0.07,0.12,182,30
665,3.2,7.3,-3.2,-0.125,-0.280,-0.936,-0.6,-2.9,0.0,-0.0041,-0.0112,-0.0150,321,345,317,404,0.01,0.01,-0.48,0.12,0.1000,1,1,0,0.01,0.00,-0.53,-0.15,0.01,-0.07,0.12,182,30
676,-3.8,-5.0,2.1,0.113,0.265,-1.071,-0.7,-3.1,0.0,0.0049,-0.0031,-0.0167,291,378,339,379,0.01,0.01,-0.48,0.12,0.1000,1,1,0,0.01,0.00,-0.53,-0.15,0.01,-0.07,0.12,182,30
686,7.5,-2.0,-2.1,-0.042,-0.125,-1.037,-0.6,-2.9,0.0,-0.0110,0.0024,-0.0154,350,362,285,390,0.01,0.01,-0.48,0.12,0.1000,1,1,0,0.01,0.00,-0.53,-0.14,0.01,-0.07,0.12,182,30
696,-9.1,9.3,-1.2,-0.013,-0.076,-1.045,-0.7,-3.1,0.0,0.0080,-0.0135,-0.0154,275,361,361,391,0.01,0.01,-0.48,0.12,0.1000,1,1,0,0.01,0.00,-0.53,-0.15,0.01,-0.07,0.12,182,30
706,6.4,-9.9,2.3,0.058,0.137,-0.927,-0.5,-2.9,0.0,-0.0042,0.0072,-0.0163,334,387,299,367,0.01,0.01,-0.48,0.12,0.1000,1,1,0,0.01,0.00,-0.53,-0.15,0.01,-0.07,0.12,182,30
716,0.7,11.6,-0.4,-0.034,-0.022,-1.067,-0.8,-3.1,0.0,-0.0019,-0.0157,-0.0158,300,344,332,412,0.01,0.01,-0.48,0.12,0.1000,1,1,0,0.01,0.00,-0.53,-0.15,0.01,-0.07,0.12,182,30
726,3.8,-9.1,1.1,0.063,0.014,-0.961,-0.6,-3.1,0.0,-0.0035,-0.0009,-0.0161,312,362,321,392,0.01,0.01,-0.48,0.12,0.1000,1,1,0,0.01,0.00,-0.54,-0.15,0.01,-0.07,0.12,182,30
736,-4.6,-3.2,3.0,-0.002,-0.103,-0.938,-0.7,-3.1,0.0,0.0027,-0.0009,-0.0169,311,371,319,386,0.01,0.01,-0.48,0.12,0.1000,1,1,0,0.01,0.00,-0.53,-0.15,0.01,-0.07,0.12,182,30
756,-0.8,1.9,-2.0,-0.047,0.007,-1.001,-0.7,-2.9,0.0,0.0000,-0.0035,-0.0152,315,371,322,380,0.01,0.01,-0.48,0.12,0.1000,1,1,0,0.01,0.00,-0.53,-0.15,0.01,-0.07,0.12,182,30
766,5.6,0.9,1.2,0.067,0.024,-1.084,-0.6,-3.1,0.0,-0.0059,-0.0060,-0.0166,308,358,322,399,0.01,0.01,-0.48,0.12,0.1000,1,1,0,0.01,0.00,-0.54,-0.15,0.01,-0.07,0.12,182,30
776,-6.2,-0.2,-4.9,-0.108,-0.143,-1.019,-0.7,-3.0,0.0,0.0035,-0.0030,-0.0144,310,373,329,375,0.01,0.01,-0.48,0.12,0.1000,1,1,0,0.01,0.00,-0.53,-0.15,0.01,-0.07,0.12,182,30
787,5.3,-3.8,1.5,0.159,0.207,-1.002,-0.6,-3.0,0.0,-0.0062,-0.0001,-0.0163,308,371,324,385,0.01,0.01,-0.48,0.12,0.1000,1,1,0,0.01,0.00,-0.54,-0.15,0.01,-0.07,0.12,182,30
797,1.0,-2.0,-2.6,-0.137,-0.079,-1.000,-0.7,-2.9,0.0,-0.0048,0.0036,-0.0150,344,376,293,375,0.01,0.01,-0.48,0.12,0.1000,1,1,0,0.01,0.00,-0.53,-0.15,0.01,-0.07,0.12,182,30
807,-3.8,12.0,0.4,-0.020,-0.198,-0.992,-0.5,-3.0,0.0,0.0035,-0.0168,-0.0160,277,355,355,399,0.01,0.01,-0.48,0.12,0.1000,1,1,0,0.01,0.00,-0.54,-0.15,0.01,-0.07,0.12,182,30
817,1.2,-2.0,0.3,0.188,0.206,-0.919,-0.7,-3.1,0.0,-0.0022,-0.0037,-0.0157,311,364,324,388,0.01,0.01,-0.48,0.12,0.1000,1,1,0,0.01,0.00,-0.53,-0.15,0.01,-0.07,0.12,182,30
827,0.0,-0.1,2.4,-0.073,-0.215,-1.026,-0.6,-3.0,0.0,-0.0014,-0.0042,-0.0167,312,362,318,396,0.01,0.01,-0.48,0.12,0.1000,1,1,0,0.01,0.00,-0.54,-0.15,0.01,-0.07,0.12,182,30
837,-5.7,0.5,0.0,0.054,-0.016,-0.945,-0.6,-3.1,0.0,0.0047,-0.0045,-0.0159,295,373,339,380,0.01,0.01,-0.48,0.12,0.1000,1,1,0,0.01,0.00,-0.54,-0.15,0.01,-0.07,0.12,182,30
847,2.9,-5.0,0.7,-0.001,-0.077,-1.015,-0.6,-3.0,0.0,-0.0046,0.0003,-0.0163,324,368,307,387,0.01,0.01,-0.48,0.12,0.1000,1,1,0,0.01,0.00,-0.54,-0.15,0.01,-0.07,0.12,182,30
857,-3.4,-1.4,-2.4,0.087,0.060,-0.995,-0.6,-3.0,0.0,0.0030,-0.0024,-0.0151,306,376,330,375,0.01,0.01,-0.48,0.12,0.1000,1,1,0,0.01,0.00,-0.54,-0.15,0.01,-0.07,0.12,182,30
867,0.2,0.5,4.2,-0.067,-0.155,-1.032,-0.6,-3.0,0.0,-0.0011,-0.0046,-0.0173,315,370,313,389,0.01,0.01,-0.48,0.12,0.1000,1,1,0,0.01,0.00,-0.54,-0.15,0.01,-0.07,0.12,182,30
877,0.5,-0.1,-3.7,0.076,0.071,-0.894,-0.6,-3.1,0.0,0.0013,-0.0075,-0.0148,295,362,342,388,0.01,0.01,-0.48,0.12,0.1000,1,1,0,0.01,0.00,-0.54,-0.16,0.01,-0.07,0.12,182,30
888,0.0,-0.5,-3.4,0.018,-0.019,-0.944,-0.6,-3.0,0.0,-0.0009,-0.0034,-0.0148,322,363,317,384,0.01,0.01,-0.48,0.12,0.1000,1,1,0,0.01,0.00,-0.54,-0.15,0.01,-0.07,0.12,182,30
898,2.2,-8.5,4.4,0.061,-0.053,-0.941,-0.6,-3.0,0.0,-0.0024,0.0005,-0.0175,313,372,314,389,0.01,0.01,-0.48,0.12,0.1000,1,1,0,0.01,0.00,-0.54,-0.15,0.01,-0.07,0.12,182,30
908,-6.0,-5.2,-2.5,-0.019,-0.018,-1.071,-0.7,-3.0,0.0,0.0045,0.0035,-0.0150,322,393,314,359,0.01,0.01,-0.48,0.12,0.1000,1,1,0,0.01,0.00,-0.54,-0.15,0.01,-0.07,0.12,182,30
918,2.6,6.0,-2.3,0.030,-0.112,-0.994,-0.5,-3.1,0.0,-0.0017,-0.0115,-0.0149,297,351,340,399,0.01,0.01,-0.48,0.12,0.1000,1,1,0,0.01,0.00,-0.54,-0.15,0.01,-0.07,0.12,182,30
928,3.9,-16.0,1.6,0.075,0.307,-0.969,-0.7,-3.0,0.0,-0.0051,0.0120,-0.0163,342,390,291,365,0.01,0.01,-0.48,0.12,0.1000,1,1,0,0.01,0.00,-0.54,-0.15,0.01,-0.07,0.12,182,30
938,-0.7,8.0,3.3,-0.191,-0.350,-1.025,-0.6,-2.9,0.0,-0.0001,-0.0120,-0.0168,329,367,302,390,0.01,0.01,-0.48,0.12,0.1000,1,1,0,0.01,0.00,-0.54,-0.15,0.01,-0.07,0.12,182,30
948,-2.7,0.4,0.9,0.120,0.229,-1.071,-0.7,-3.1,0.0,0.0029,-0.0048,-0.0162,291,380,341,375,0.01,0.01,-0.48,0.12,0.1000,1,1,0,0.01,0.00,-0.54,-0.16,0.01,-0.07,0.12,182,30
958,1.4,1.9,-2.3,-0.086,-0.142,-0.976,-0.6,-2.9,0.0,-0.0023,-0.0059,-0.0152,337,365,297,388,0.01,0.01,-0.48,0.12,0.1000,1,1,0,0.01,0.00,-0.54,-0.15,0.01,-0.07,0.13,182,30
968,-1.9,5.3,0.0,-0.012,0.028,-1.034,-0.6,-3.1,0.0,0.0030,-0.0094,-0.0157,292,367,342,386,0.01,0.01,-0.48,0.12,0.1000,1,1,0,0.01,0.00,-0.54,-0.16,0.01,-0.07,0.12,182,30
979,2.9,-2.0,0.4,0.018,0.010,-0.992,-0.6,-2.9,0.0,-0.0039,-0.0019,-0.0159,323,370,312,383,0.01,0.01,-0.48,0.12,0.1000,1,1,0,0.01,0.00,-0.55,-0.15,0.01,-0.07,0.12,182,30
989,0.0,3.7,-3.5,0.029,0.002,-1.018,-0.7,-3.1,0.0,-0.0022,-0.0079,-0.0151,309,357,327,394,0.01,0.01,-0.48,0.12,0.1000,1,1,0,0.01,0.00,-0.54,-0.15,0.01,-0.07,0.12,182,30
999,-0.1,-0.6,0.1,-0.053,-0.109,-0.975,-0.6,-3.0,0.0,-0.0008,-0.0033,-0.0158,306,360,330,391,0.01,0.01,-0.48,0.12,0.1000,1,1,0,0.01,0.00,-0.55,-0.16,0.01,-0.07,0.12,182,30
1009,-2.8,-6.4,2.7,0.058,0.126,-1.070,-0.6,-3.0,0.0,0.0002,0.0053,-0.0168,328,390,302,368,0.01,0.01,-0.48,0.12,0.1000,1,1,0,0.01,0.00,-0.54,-0.15,0.01,-0.07,0.12,183,30
1019,1.0,11.6,-2.2,-0.076,-0.234,-1.046,-0.6,-2.9,0.0,-0.0016,-0.0123,-0.0152,315,365,321,387,0.01,0.01,-0.48,0.12,0.1000,1,1,0,0.01,0.00,-0.55,-0.16,0.01,-0.07,0.12,183,30
1029,-4.7,7.3,0.0,0.037,0.179,-0.991,-0.7,-3.1,0.0,0.0036,-0.0115,-0.0158,281,366,354,386,0.01,0.01,-0.48,0.12,0.1000,1,1,0,0.01,0.00,-0.54,-0.16,0.01,-0.07,0.12,183,30
1039,6.2,-3.1,3.4,0.032,-0.074,-0.995,-0.6,-2.9,0.0,-0.0078,0.0003,-0.0170,332,367,298,391,0.01,0.01,-0.48,0.12,0.1000,1,1,0,0.01,0.00,-0.55,-0.15,0.01,-0.07,0.12,183,30
1049,-8.0,8.3,-3.8,-0.084,-0.048,-1.065,-0.7,-3.1,0.0,0.0069,-0.0125,-0.0147,283,357,356,392,0.01,0.01,-0.48,0.12,0.1000,1,1,0,0.01,0.00,-0.54,-0.16,0.01,-0.07,0.12,183,30
1059,8.4,-9.7,0.2,0.139,0.117,-0.973,-0.5,-3.0,0.0,-0.0088,0.0051,-0.0160,332,370,301,385,0.01,0.01,-0.48,0.12,0.1000,1,1,0,0.01,0.00,-0.55,-0.15,0.01,-0.07,0.12,183,30
1069,-5.0,-2.0,0.9,-0.085,-0.103,-0.928,-0.7,-3.0,0.0,0.0036,-0.0012,-0.0160,317,381,318,372,0.01,0.01,-0.48,0.12,0.1000,1,1,0,0.01,0.00,-0.54,-0.16,0.01,-0.07,0.12,183,30
1080,1.1,0.4,-0.2,-0.002,0.007,-0.973,-0.5,-3.1,0.0,-0.0020,-0.0046,-0.0157,304,365,330,389,0.01,0.01,-0.48,0.12,0.1000,1,1,0,0.01,0.00,-0.55,-0.16,0.01,-0.07,0.12,183,30
1090,2.2,-1.1,-1.4,0.048,0.130,-0.954,-0.6,-3.0,0.0,-0.0028,-0.0005,-0.0152,325,373,312,378,0.01,0.01,-0.48,0.12,0.1000,1,1,0,0.01,0.00,-0.55,-0.16,0.01,-0.07,0.12,183,30
1100,2.9,1.4,0.6,-0.112,-0.159,-1.050,-0.6,-3.1,0.0,-0.0039,-0.0056,-0.0159,317,352,315,404,0.01,0.01,-0.48,0.12,0.1000,1,1,0,0.01,0.00,-0.55,-0.16,0.01,-0.07,0.12,183,30
1110,-5.9,0.4,0.4,0.046,0.047,-0.986,-0.6,-3.0,0.0,0.0049,-0.0045,-0.0158,301,382,334,370,0.01,0.01,-0.48,0.12,0.1000,1,1,0,0.01,0.00,-0.55,-0.16,0.01,-0.07,0.12,184,30
1120,7.0,-3.1,-0.8,0.000,0.051,-1.034,-0.7,-3.0,0.0,-0.0082,-0.0005,-0.0157,332,363,300,392,0.01,0.01,-0.48,0.12,0.1000,1,1,0,0.01,0.00,-0.55,-0.16,0.01,-0.07,0.12,184,30
1130,-1.8,7.1,-1.5,-0.007,-0.063,-1.021,-0.6,-3.0,0.0,0.0008,-0.0104,-0.0152,306,364,331,386,0.01,0.01,-0.48,0.12,0.1000,1,1,0,0.01,0.00,-0.55,-0.16,0.01,-0.07,0.12,184,30
1140,-0.3,7.1,3.3,0.067,-0.120,-0.969,-0.7,-3.1,0.0,-0.0012,-0.0117,-0.0168,300,352,331,404,0.01,0.01,-0.48,0.12,0.1000,1,1,0,0.01,0.00,-0.55,-0.16,0.01,-0.07,0.12,184,30
1150,2.4,-5.8,-2.2,0.048,0.130,-0.902,-0.6,-3.1,0.0,-0.0034,0.0017,-0.0151,317,368,320,383,0.01,0.01,-0.48,0.12,0.1000,1,1,0,0.01,0.00,-0.55,-0.16,0.01,-0.07,0.12,184,30
1160,-2.8,6.9,0.2,-0.030,-0.212,-0.983,-0.7,-3.0,0.0,0.0010,-0.0104,-0.0159,308,359,326,395,0.01,0.01,-0.48,0.12,0.1000,1,1,0,0.01,0.00,-0.55,-0.16,0.01,-0.07,0.12,184,30
1170,-1.8,-4.6,-0.2,0.069,0.018,-0.935,-0.6,-3.0,0.0,0.0008,0.0004,-0.0157,302,375,330,381,0.01,0.01,-0.48,0.12,0.1000,1,1,0,0.01,0.00,-0.55,-0.16,0.01,-0.07,0.12,184,30
1180,-3.4,0.5,-1.0,0.012,-0.073,-1.055,-0.6,-3.0,0.0,0.0024,-0.0047,-0.0154,313,375,324,375,0.01,0.01,-0.48,0.12,0.1000,1,1,0,0.01,0.00,-0.55,-0.16,0.01,-0.07,0.12,184,30
1191,4.0,0.0,-2.0,0.039,-0.005,-0.924,-0.7,-3.0,0.0,-0.0050,-0.0049,-0.0151,311,353,325,399,0.01,0.01,-0.48,0.12,0.1000,1,1,0,0.01,0.00,-0.55,-0.16,0.01,-0.07,0.12,184,30
1201,-1.7,-6.9,1.6,-0.001,0.077,-1.064,-0.6,-2.9,0.0,0.0007,0.0028,-0.0162,327,389,305,366,0.01,0.01,-0.48,0.12,0.1000,1,1,0,0.01,0.00,-0.55,-0.16,0.01,-0.07,0.12,184,30
1211,-1.8,15.8,-2.0,-0.028,-0.267,-0.983,-0.6,-3.0,0.0,0.0005,-0.0205,-0.0152,281,339,354,413,0.01,0.01,-0.48,0.12,0.1000,1,1,0,0.01,0.00,-0.55,-0.16,0.01,-0.07,0.12,184,30
1221,5.1,-12.2,1.7,0.124,0.413,-1.064,-0.6,-3.1,0.0,-0.0061,0.0080,-0.0162,315,379,319,375,0.01,0.01,-0.48,0.12,0.1000,1,1,0,0.01,0.00,-0.55,-0.16,0.01,-0.07,0.12,184,30
1231,-2.1,8.6,-2.5,-0.131,-0.392,-0.986,-0.7,-2.9,0.0,-0.0003,-0.0111,-0.0150,335,354,299,399,0.01,0.01,-0.48,0.12,0.1000,1,1,0,0.01,0.00,-0.56,-0.16,0.01,-0.07,0.12,184,30
1241,-5.3,4.8,1.3,0.021,0.108,-1.096,-0.7,-3.1,0.0,0.0053,-0.0101,-0.0161,275,370,359,384,0.01,0.01,-0.48,0.12,0.1000,1,1,0,0.01,0.00,-0.55,-0.16,0.01,-0.07,0.12,184,30
1251,6.4,-1.3,2.0,0.066,0.021,-0.968,-0.6,-2.9,0.0,-0.0075,-0.0027,-0.0163,329,362,303,393,0.01,0.01,-0.48,0.12,0.1000,1,1,0,0.01,0.00,-0.56,-0.16,0.01,-0.07,0.12,184,30
1261,-2.5,2.0,-3.1,-0.063,-0.005,-1.010,-0.7,-3.0,0.0,-0.0004,-0.0073,-0.0151,307,359,329,393,0.01,0.01,-0.48,0.12,0.1000,1,1,0,0.01,0.00,-0.55,-0.16,0.01,-0.07,0.12,184,30
1271,-1.4,2.1,1.7,-0.035,-0.196,-1.073,-0.6,-2.9,0.0,0.0004,-0.0061,-0.0162,311,372,323,382,0.01,0.01,-0.48,0.12,0.1000,1,1,0,0.01,0.00,-0.56,-0.16,0.01,-0.07,0.12,184,30
1281,-4.7,3.2,-1.6,0.144,0.172,-1.092,-0.7,-3.0,0.0,0.0038,-0.0077,-0.0155,296,370,337,383,0.01,0.01,-0.48,0.12,0.1000,1,1,0,0.01,0.00,-0.55,-0.16,0.01,-0.07,0.12,184,30
1292,6.4,1.9,-1.8,-0.059,-0.043,-1.068,-0.7,-3.0,0.0,-0.0070,-0.0063,-0.0150,315,352,323,398,0.01,0.01,-0.48,0.12,0.1000,1,1,0,0.01,0.00,-0.56,-0.16,0.01,-0.07,0.12,184,30
1302,-3.5,2.2,0.8,-0.009,0.046,-0.963,-0.7,-3.0,0.0,0.0024,-0.0063,-0.0159,298,361,336,392,0.01,0.01,-0.48,0.12,0.1000,1,1,0,0.01,0.00,-0.55,-0.16,0.01,-0.07,0.12,184,30
1312,2.2,-8.5,1.1,0.026,-0.079,-1.052,-0.6,-2.9,0.0,-0.0032,0.0045,-0.0161,329,378,303,378,0.01,0.01,-0.48,0.12,0.1000,1,1,0,0.01,0.00,-0.56,-0.16,0.01,-0.07,0.12,184,30
1322,-5.7,2.9,-2.7,-0.067,-0.011,-1.045,-0.7,-3.0,0.0,0.0050,-0.0068,-0.0145,297,370,342,378,0.01,0.01,-0.48,0.12,0.1000,1,1,0,0.01,0.00,-0.56,-0.16,0.01,-0.07,0.12,184,30
1332,9.5,-7.6,3.0,0.137,0.145,-0.949,-0.7,-2.9,0.0,-0.0106,0.0036,-0.0166,337,367,294,390,0.01,0.01,-0.48,0.12,0.1000,1,1,0,0.01,0.00,-0.56,-0.16,0.01,-0.07,0.12,184,30
1342,-8.2,5.1,-0.5,-0.151,-0.215,-1.014,-0.7,-2.9,0.0,0.0067,-0.0086,-0.0155,299,374,336,379,0.01,0.01,-0.48,0.12,0.1000,1,1,0,0.01,0.00,-0.56,-0.16,0.01,-0.07,0.12,184,30
1352,3.2,0.0,0.4,0.124,0.062,-1.011,-0.6,-3.0,0.0,-0.0036,-0.0059,-0.0158,292,352,341,402,0.01,0.01,-0.48,0.12,0.1000,1,1,0,0.01,0.00,-0.56,-0.16,0.01,-0.07,0.12,184,30
1362,0.1,-8.6,0.4,0.048,0.123,-0.978,-0.7,-2.9,0.0,-0.0012,0.0045,-0.0158,331,380,303,373,0.01,0.01,-0.48,0.12,0.1000,1,1,0,0.01,0.00,-0.55,-0.16,0.01,-0.07,0.12,184,30
1372,0.4,-2.3,0.2,-0.137,-0.218,-1.036,-0.7,-2.9,0.0,-0.0018,-0.0021,-0.0159,315,367,318,387,0.01,0.01,-0.48,0.12,0.1000,1,1,0,0.01,0.00,-0.56,-0.16,0.01,-0.07,0.12,184,30
1382,0.2,5.8,-0.7,0.116,0.217,-1.023,-0.6,-3.0,0.0,-0.0013,-0.0100,-0.0154,298,359,339,392,0.01,0.01,-0.48,0.12,0.1000,1,1,0,0.01,0.00,-0.56,-0.16,0.01,-0.07,0.12,184,30
1392,4.3,-4.9,-0.9,0.010,-0.101,-0.969,-0.7,-2.9,0.0,-0.0054,0.0008,-0.0154,333,362,301,391,0.01,0.01,-0.48,0.12,0.1000,1,1,0,0.01,0.00,-0.56,-0.16,0.01,-0.07,0.12,184,30
1402,-2.0,9.9,2.4,-0.049,-0.021,-0.967,-0.7,-2.9,0.0,0.0014,-0.0132,-0.0161,289,355,344,400,0.01,0.01,-0.48,0.12,0.1000,1,1,0,0.01,0.00,-0.56,-0.16,0.01,-0.07,0.12,184,30
1413,-0.1,-1.2,-1.3,0.077,-0.034,-1.011,-0.6,-3.0,0.0,-0.0008,-0.0030,-0.0153,306,357,329,396,0.01,0.01,-0.48,0.12,0.1000,1,1,0,0.01,0.00,-0.56,-0.16,0.01,-0.07,0.12,184,30
1423,3.9,-2.7,-2.1,-0.008,0.004,-1.047,-0.7,-2.8,0.0,-0.0044,0.0027,-0.0148,335,377,303,373,0.01,0.01,-0.48,0.12,0.1000,1,1,0,0.01,0.00,-0.56,-0.16,0.01,-0.07,0.12,184,30
1433,-11.4,13.6,4.0,0.020,-0.192,-1.140,-0.6,-3.0,0.0,0.0104,-0.0178,-0.0169,264,361,366,396,0.01,0.01,-0.48,0.12,0.1000,1,1,0,0.01,0.00,-0.56,-0.16,0.01,-0.07,0.12,184,30
1443,11.5,-12.4,-2.9,0.032,0.259,-0.915,-0.6,-2.8,0.0,-0.0126,0.0084,-0.0147,346,379,290,372,0.01,0.00,-0.48,0.12,0.1000,1,1,0,0.01,0.00,-0.56,-0.16,0.01,-0.07,0.12,184,30
1453,-6.6,15.8,-1.7,-0.120,-0.192,-1.060,-0.7,-2.9,0.0,0.0043,-0.0186,-0.0150,299,352,339,396,0.01,0.01,-0.48,0.12,0.1000,1,1,0,0.01,0.00,-0.56,-0.16,0.01,-0.07,0.12,184,30
1463,3.6,-10.4,3.1,0.112,0.087,-0.888,-0.6,-3.0,0.0,-0.0046,0.0062,-0.0166,326,379,305,378,0.01,0.01,-0.48,0.12,0.1000,1,1,0,0.01,0.00,-0.56,-0.16,0.01,-0.07,0.12,184,30
1473,-4.9,1.9,1.1,-0.052,-0.063,-1.035,-0.6,-2.9,0.0,0.0035,-0.0045,-0.0160,317,383,316,372,0.01,0.01,-0.48,0.12,0.1000,1,1,0,0.01,0.00,-0.56,-0.16,0.01,-0.07,0.12,184,30
1483,-0.8,3.4,-5.6,0.024,-0.109,-0.935,-0.5,-3.0,0.0,0.0005,-0.0114,-0.0141,297,353,343,394,0.01,0.01,-0.48,0.12,0.1000,1,1,0,0.01,0.00,-0.56,-0.16,0.01,-0.07,0.12,184,30
1493,4.0,-8.5,2.8,0.078,0.203,-1.076,-0.6,-3.0,0.0,-0.0051,0.0044,-0.0164,330,376,302,380,0.01,0.01,-0.48,0.12,0.1000,1,1,0,0.01,0.00,-0.56,-0.16,0.01,-0.07,0.12,184,30
1503,-5.4,5.5,-2.2,-0.028,-0.262,-1.021,-0.5,-3.0,0.0,0.0028,-0.0107,-0.0148,293,360,344,390,0.01,0.01,-0.48,0.12,0.1000,1,1,0,0.01,0.00,-0.57,-0.16,0.01,-0.07,0.12,184,30
1513,4.2,-1.3,1.4,0.036,0.158,-1.074,-0.7,-3.0,0.0,-0.0053,-0.0028,-0.0160,313,363,320,392,0.01,0.01,-0.48,0.12,0.1000,1,1,0,0.01,0.00,-0.56,-0.16,0.01,-0.07,0.12,184,30
1524,-2.3,-0.6,1.2,0.083,-0.097,-0.937,-0.6,-2.9,0.0,0.0011,-0.0038,-0.0160,307,368,325,387,0.01,0.01,-0.48,0.12,0.1000,1,1,0,0.01,0.00,-0.57,-0.16,0.01,-0.07,0.12,184,30
1534,-2.1,-2.6,-2.9,-0.057,-0.048,-1.071,-0.6,-3.0,0.0,0.0008,-0.0014,-0.0147,316,373,322,376,0.01,0.01,-0.48,0.12,0.1000,1,1,0,0.01,0.00,-0.56,-0.16,0.01,-0.07,0.12,184,30
1544,0.9,8.3,1.9,0.069,-0.031,-1.035,-0.6,-3.0,0.0,0.0006,-0.0128,-0.0160,289,357,344,397,0.01,0.01,-0.48,0.12,0.1000,1,1,0,0.01,0.00,-0.57,-0.16,0.01,-0.07,0.12,184,30
1554,3.2,-4.3,-1.1,0.083,0.227,-0.939,-0.6,-3.0,0.0,-0.0040,-0.0005,-0.0153,322,367,314,386,0.01,0.01,-0.48,0.12,0.1000,1,1,0,0.01,0.00,-0.56,-0.16,0.01,-0.07,0.12,184,30
1564,2.7,10.6,0.7,-0.138,-0.287,-0.956,-0.6,-3.0,0.0,-0.0037,-0.0149,-0.0158,375,418,419,494,0.01,0.01,-0.48,0.12,0.1419,1,1,0,0.01,0.00,-0.57,-0.16,0.01,-0.07,0.13,184,30
1574,-4.0,-8.1,1.2,0.121,0.243,-0.950,-0.6,-3.0,0.0,0.0035,0.0004,-0.0159,389,462,400,447,0.01,0.01,-0.48,0.12,0.1412,1,1,0,0.01,0.00,-0.56,-0.16,0.01,-0.07,0.12,184,30
1584,7.4,0.7,-0.9,-0.024,-0.184,-1.081,-0.6,-2.9,0.0,-0.0087,-0.0033,-0.0154,414,438,380,474,0.01,0.01,-0.48,0.12,0.1424,1,1,0,0.01,0.00,-0.57,-0.16,0.01,-0.07,0.12,184,30
1594,-6.4,0.0,0.7,-0.068,0.187,-0.967,-0.6,-3.1,0.0,0.0054,-0.0043,-0.0158,372,461,421,449,0.01,0.01,-0.48,0.12,0.1412,1,1,0,0.01,0.00,-0.57,-0.16,0.01,-0.07,0.12,184,30
1604,6.4,-8.8,-0.4,0.077,-0.185,-0.992,-0.6,-2.9,0.0,-0.0093,0.0062,-0.0155,549,567,480,580,0.01,0.01,-0.48,0.12,0.2042,1,1,0,0.01,0.00,-0.57,-0.16,0.01,-0.07,0.12,184,30
1614,-0.5,8.5,2.3,-0.036,0.174,-1.093,-0.5,-3.1,0.0,-0.0004,-0.0128,-0.0163,482,557,546,594,0.01,0.01,-0.48,0.12,0.2049,1,1,0,0.01,0.00,-0.57,-0.16,0.01,-0.07,0.12,184,30
1625,-1.1,-4.7,-2.6,0.033,-0.091,-0.939,-0.7,-2.9,0.0,-0.0021,0.0042,-0.0148,525,573,501,565,0.01,0.01,-0.48,0.12,0.2027,1,1,0,0.01,0.00,-0.57,-0.16,0.01,-0.07,0.12,184,30
1635,-0.1,-7.9,2.5,0.009,0.052,-1.086,-0.5,-3.1,0.0,-0.0008,0.0036,-0.0164,510,579,518,574,0.01,0.01,-0.48,0.12,0.2046,1,1,0,0.01,0.00,-0.57,-0.16,0.01,-0.07,0.12,184,30
1645,-6.7,0.0,0.4,0.135,-0.141,-1.057,-0.6,-3.1,0.0,0.0052,-0.0114,-0.0152,632,710,695,733,0.01,0.01,-0.48,0.12,0.2835,1,1,0,0.01,0.00,-0.57,-0.17,0.01,-0.07,0.12,184,30
1655,-0.4,-11.7,-0.2,0.119,-0.249,-0.732,-0.7,-3.1,0.0,-0.0005,0.0074,-0.0155,673,712,648,723,0.01,0.01,-0.48,0.12,0.2823,1,1,0,0.01,0.00,-0.57,-0.16,0.01,-0.07,0.12,184,30
1665,-5.0,-10.5,5.5,0.031,-0.135,-0.932,-0.6,-3.1,0.0,0.0007,-0.0004,-0.0168,691,747,708,778,0.01,0.01,-0.48,0.12,0.3012,1,1,0,0.01,0.00,-0.57,-0.16,0.01,-0.07,0.13,184,30
1675,-5.0,-36.7,-9.0,0.089,-0.113,-1.217,-0.7,-3.1,0.0,0.0039,0.0324,-0.0127,743,793,678,716,0.01,0.00,-0.49,0.12,0.3018,1,1,0,0.01,0.00,-0.57,-0.17,0.01,-0.07,0.13,184,30
1685,1.7,-30.8,-0.7,0.035,0.013,-1.042,-0.8,-3.2,0.0,-0.0041,0.0247,-0.0160,821,853,750,850,0.01,0.01,-0.48,0.12,0.3493,1,1,0,0.01,0.00,-0.57,-0.17,0.01,-0.07,0.13,184,30
1695,-6.2,-11.0,15.9,0.048,-0.045,-1.201,-0.6,-2.9,0.0,0.0052,0.0069,-0.0203,792,889,767,823,0.01,0.01,-0.48,0.12,0.3474,1,1,0,0.01,0.00,-0.57,-0.17,0.01,-0.07,0.13,184,30
1705,-9.4,-7.9,-5.7,0.103,-0.100,-1.069,-0.7,-3.0,0.0,0.0083,0.0036,-0.0136,790,863,801,819,0.01,0.01,-0.49,0.12,0.3482,1,1,0,0.01,0.00,-0.57,-0.17,0.01,-0.07,0.13,184,30
1715,-0.1,5.5,1.8,0.097,-0.088,-0.796,-0.7,-3.2,0.0,-0.0022,-0.0129,-0.0164,758,812,799,869,0.01,0.01,-0.48,0.12,0.3467,1,1,0,0.01,0.00,-0.57,-0.17,0.01,-0.07,0.13,184,30
1726,6.1,7.8,3.3,-0.070,0.090,-0.979,-0.7,-3.2,0.0,-0.0072,-0.0123,-0.0165,771,802,795,887,0.01,0.01,-0.48,0.12,0.3462,1,1,0,0.01,0.00,-0.57,-0.16,0.01,-0.07,0.13,184,30
1736,2.9,15.9,-12.4,-0.048,0.043,-1.141,-0.8,-3.0,0.0,-0.0042,-0.0149,-0.0116,788,814,810,872,0.01,0.01,-0.49,0.12,0.3512,1,1,0,0.01,0.00,-0.57,-0.17,0.01,-0.07,0.12,184,30
1746,8.3,9.2,-0.6,-0.120,0.051,-0.905,-0.8,-3.1,0.0,-0.0102,-0.0125,-0.0156,787,805,784,886,0.01,0.01,-0.48,0.12,0.3499,1,1,0,0.01,0.00,-0.57,-0.17,0.01,-0.07,0.12,184,30
1756,5.4,8.8,1.1,-0.121,0.007,-0.789,-0.8,-2.8,0.0,-0.0071,-0.0089,-0.0160,818,839,757,857,0.01,0.01,-0.48,0.12,0.3481,1,1,0,0.01,0.00,-0.57,-0.16,0.01,-0.07,0.12,184,30
1766,20.2,-10.5,-2.2,-0.042,0.107,-1.122,-0.9,-2.9,0.0,-0.0221,0.0085,-0.0151,854,827,728,869,0.01,0.01,-0.48,0.12,0.3479,1,1,0,0.01,0.00,-0.57,-0.16,0.01,-0.07,0.12,184,30
1776,21.4,-7.0,-3.0,-0.046,0.165,-1.138,-0.9,-3.0,0.0,-0.0228,0.0027,-0.0149,847,819,733,875,0.01,0.01,-0.48,0.12,0.3490,1,1,0,0.01,0.00,-0.58,-0.16,0.01,-0.07,0.12,184,30
1786,20.6,9.9,-1.2,-0.095,0.147,-1.233,-0.8,-3.0,0.0,-0.0218,-0.0055,-0.0157,819,796,757,899,0.01,0.01,-0.48,0.12,0.3495,1,1,0,0.01,0.00,-0.58,-0.16,0.01,-0.07,0.13,184,30
1796,21.6,13.7,0.4,-0.102,0.155,-1.264,-0.8,-3.0,0.0,-0.0230,-0.0181,-0.0159,822,797,755,900,0.01,0.01,-0.48,0.12,0.3501,1,1,0,0.01,0.00,-0.58,-0.16,0.01,-0.07,0.13,184,30
1806,21.3,14.0,-2.5,-0.071,0.166,-1.074,-0.9,-3.0,0.0,-0.0212,-0.0092,-0.0150,815,792,770,907,0.01,0.01,-0.48,0.12,0.3523,1,1,0,0.01,0.00,-0.58,-0.16,0.01,-0.07,0.13,184,30
1817,19.1,10.9,4.9,-0.130,0.162,-0.945,-0.9,-2.9,0.0,-0.0205,-0.0152,-0.0174,809,802,761,899,0.01,0.01,-0.48,0.12,0.3505,1,1,0,0.01,0.00,-0.58,-0.16,0.01,-0.07,0.13,184,30
1827,20.5,5.7,2.0,-0.110,0.136,-0.904,-1.0,-2.9,0.0,-0.0219,-0.0100,-0.0164,830,803,742,889,0.01,0.01,-0.48,0.12,0.3489,1,1,0,0.01,0.00,-0.58,-0.16,0.01,-0.07,0.13,184,30
1837,15.3,7.4,-1.2,-0.024,0.003,-0.909,-1.0,-3.1,0.0,-0.0200,-0.0073,-0.0153,809,792,761,895,0.01,0.01,-0.48,0.12,0.3482,1,1,0,0.01,0.00,-0.58,-0.16,0.01,-0.07,0.13,184,30
1847,10.1,0.2,4.1,0.035,-0.020,-0.928,-1.1,-3.2,0.0,-0.0116,-0.0048,-0.0170,796,805,770,888,0.01,0.01,-0.48,0.12,0.3472,1,1,0,0.01,0.00,-0.58,-0.16,0.01,-0.07,0.13,184,30
1857,11.2,-10.0,-1.1,0.013,-0.032,-0.998,-1.1,-3.2,0.0,-0.0152,0.0011,-0.0151,814,809,763,881,0.01,0.01,-0.48,0.12,0.3484,1,1,0,0.01,0.00,-0.57,-0.17,0.01,-0.07,0.13,184,30
1867,8.8,-12.0,0.4,0.063,-0.025,-1.113,-1.1,-3.3,0.0,-0.0104,0.0075,-0.0159,811,819,766,881,0.01,0.01,-0.48,0.12,0.3494,1,1,0,0.01,0.00,-0.58,-0.17,0.01,-0.07,0.13,184,30
1877,7.0,-15.7,7.7,0.120,0.053,-1.226,-1.0,-3.3,0.0,-0.0085,0.0111,-0.0181,791,826,779,879,0.01,0.01,-0.48,0.12,0.3481,1,1,0,0.01,0.00,-0.58,-0.17,0.01,-0.07,0.13,184,30
1887,6.4,-10.3,2.6,0.156,0.001,-1.301,-0.9,-3.3,0.0,-0.0061,-0.0037,-0.0168,774,820,794,876,0.01,0.01,-0.48,0.12,0.3482,1,1,0,0.01,0.00,-0.58,-0.17,0.01,-0.07,0.13,184,30
1897,4.0,-4.0,8.9,0.054,0.118,-1.151,-0.9,-3.2,0.0,-0.0053,-0.0004,-0.0185,753,835,802,864,0.01,0.01,-0.48,0.12,0.3499,1,1,0,0.01,0.00,-0.57,-0.17,0.01,-0.07,0.13,184,30
1907,-3.5,1.5,5.8,0.016,-0.012,-0.798,-1.0,-3.1,0.0,0.0021,-0.0059,-0.0175,751,836,807,853,0.01,0.01,-0.48,0.12,0.3487,1,1,0,0.01,0.00,-0.57,-0.17,0.01,-0.07,0.13,184,30
1917,-9.7,-4.7,6.7,-0.014,-0.098,-0.716,-0.8,-3.0,0.0,0.0097,0.0006,-0.0180,754,868,796,820,0.01,0.01,-0.48,0.12,0.3462,1,1,0,0.01,0.00,-0.58,-0.18,0.01,-0.07,0.13,184,30
1927,-2.6,-0.4,10.0,-0.046,0.003,-0.887,-0.7,-2.9,0.0,0.0014,-0.0039,-0.0188,771,860,775,832,0.01,0.01,-0.48,0.13,0.3458,1,1,0,0.01,0.00,-0.58,-0.17,0.01,-0.07,0.13,184,30
1938,0.7,11.4,-1.0,-0.125,0.096,-0.865,-0.7,-2.9,0.0,-0.0014,-0.0073,-0.0160,774,833,775,840,0.01,0.01,-0.48,0.13,0.3442,1,1,0,0.01,0.00,-0.58,-0.17,0.01,-0.07,0.13,183,30
1948,1.5,11.5,7.9,-0.098,0.038,-0.839,-0.9,-2.8,0.0,-0.0028,-0.0158,-0.0182,776,829,768,858,0.01,0.01,-0.48,0.13,0.3442,1,1,0,0.01,0.00,-0.58,-0.17,0.01,-0.07,0.13,183,30
1958,-2.4,9.5,7.8,-0.050,-0.078,-0.852,-1.0,-2.9,0.0,0.0004,-0.0119,-0.0183,775,842,778,853,0.01,0.01,-0.48,0.13,0.3463,1,1,0,0.01,0.00,-0.58,-0.17,0.01,-0.07,0.13,183,30
1968,-6.0,13.0,5.1,-0.013,-0.107,-0.923,-1.1,-3.1,0.0,0.0042,-0.0171,-0.0178,740,824,812,867,0.01,0.01,-0.48,0.13,0.3445,1,1,0,0.01,0.00,-0.58,-0.17,0.01,-0.07,0.13,183,30
1978,-13.0,14.9,8.6,-0.006,-0.098,-1.088,-0.8,-3.3,0.0,0.0127,-0.0188,-0.0187,720,841,832,853,0.01,0.01,-0.48,0.13,0.3441,1,1,0,0.01,0.00,-0.58,-0.17,0.01,-0.07,0.13,182,30
1988,-11.1,6.6,-0.6,0.006,-0.079,-1.170,-0.6,-3.2,0.0,0.0107,-0.0102,-0.0160,746,850,818,834,0.01,0.01,-0.48,0.13,0.3447,1,1,0,0.01,0.00,-0.58,-0.17,0.01,-0.07,0.14,182,30
1998,-8.6,5.1,6.6,-0.100,-0.013,-1.146,-0.5,-2.9,0.0,0.0076,-0.0095,-0.0184,753,865,799,827,0.01,0.01,-0.48,0.13,0.3462,1,1,0,0.01,0.00,-0.58,-0.17,0.01,-0.07,0.14,182,30
2008,-1.6,12.2,2.3,0.025,-0.017,-1.116,-0.6,-2.9,0.0,0.0020,-0.0167,-0.0171,742,835,820,856,0.01,0.01,-0.48,0.13,0.3487,1,1,0,0.01,0.00,-0.58,-0.17,0.01,-0.07,0.14,182,30
2018,-0.4,13.8,-0.2,-0.055,0.069,-0.946,-0.7,-3.0,0.0,-0.0006,-0.0183,-0.0165,725,814,831,866,0.01,0.01,-0.48,0.13,0.3457,1,1,0,0.01,0.00,-0.58,-0.17,0.01,-0.07,0.14,182,30
2029,-2.0,10.3,5.1,0.005,0.032,-0.982,-0.7,-3.1,0.0,0.0055,-0.0186,-0.0179,728,816,819,866,0.01,0.01,-0.48,0.13,0.3448,1,1,0,0.01,0.00,-0.58,-0.17,0.01,-0.07,0.13,182,30
2039,1.9,-0.4,-4.2,0.011,0.068,-0.988,-0.7,-3.2,0.0,-0.0030,-0.0042,-0.0153,753,825,802,843,0.01,0.01,-0.48,0.13,0.3435,1,1,0,0.01,0.00,-0.58,-0.17,0.01,-0.07,0.13,182,30
2049,6.2,-9.5,1.0,-0.019,0.071,-0.912,-0.7,-2.9,0.0,-0.0074,0.0052,-0.0170,799,846,748,828,0.01,0.01,-0.48,0.13,0.3427,1,1,0,0.01,0.00,-0.58,-0.17,0.01,-0.07,0.13,182,30
2059,9.0,-4.9,-0.1,-0.063,0.014,-0.984,-0.8,-2.7,0.0,-0.0088,0.0094,-0.0158,812,839,743,836,0.01,0.01,-0.48,0.13,0.3429,1,1,0,0.01,0.00,-0.58,-0.17,0.01,-0.07,0.14,182,30
2069,6.6,10.1,-5.4,-0.159,0.061,-0.985,-0.8,-2.8,0.0,-0.0079,-0.0144,-0.0149,785,816,774,856,0.01,0.01,-0.48,0.13,0.3440,1,1,0,0.01,0.00,-0.58,-0.17,0.01,-0.07,0.14,182,30
2079,8.3,3.5,1.9,-0.234,0.104,-1.113,-0.8,-2.9,0.0,-0.0096,0.0004,-0.0168,796,823,758,858,0.01,0.01,-0.48,0.13,0.3442,1,1,0,0.01,0.00,-0.58,-0.17,0.01,-0.07,0.14,182,30
2089,12.5,-12.4,-6.1,-0.113,0.168,-1.124,-0.9,-3.0,0.0,-0.0139,0.0080,-0.0144,850,855,718,819,0.01,0.01,-0.48,0.13,0.3452,1,1,0,0.01,0.00,-0.58,-0.17,0.01,-0.07,0.14,182,30
2099,8.8,-12.2,0.4,-0.083,0.076,-1.112,-0.9,-2.9,0.0,-0.0103,0.0213,-0.0164,835,857,715,816,0.01,0.01,-0.48,0.13,0.3431,1,1,0,0.01,0.00,-0.58,-0.17,0.01,-0.07,0.14,182,30
2109,6.8,-8.9,4.3,0.019,0.057,-1.071,-0.9,-3.0,0.0,-0.0082,0.0045,-0.0175,810,851,731,820,0.01,0.01,-0.48,0.13,0.3440,1,1,0,0.01,0.00,-0.58,-0.17,0.01,-0.07,0.13,182,30
2119,5.2,-6.8,-1.7,0.017,0.041,-1.029,-0.7,-3.0,0.0,-0.0047,0.0019,-0.0155,789,830,764,840,0.01,0.01,-0.48,0.13,0.3453,1,1,0,0.01,0.00,-0.58,-0.17,0.01,-0.07,0.13,182,30
2130,5.8,0.0,10.2,0.036,0.120,-0.976,-0.6,-3.2,0.0,-0.0069,-0.0045,-0.0195,753,810,781,867,0.01,0.01,-0.48,0.13,0.3428,1,1,0,0.01,0.00,-0.59,-0.17,0.01,-0.07,0.13,182,30
2140,2.5,2.8,3.4,0.000,0.108,-0.949,-0.6,-3.2,0.0,-0.0037,-0.0091,-0.0171,756,803,787,865,0.01,0.01,-0.48,0.13,0.3423,1,1,0,0.01,0.00,-0.59,-0.17,0.01,-0.07,0.13,182,30
2150,-5.3,4.4,5.1,-0.027,0.042,-0.924,-0.7,-3.2,0.0,0.0041,-0.0095,-0.0179,743,824,796,849,0.01,0.01,-0.48,0.13,0.3415,1,1,0,0.01,0.00,-0.59,-0.17,0.01,-0.07,0.13,182,30
2160,-8.1,-10.7,9.5,0.034,-0.025,-1.161,-0.9,-3.2,0.0,0.0065,0.0062,-0.0192,771,861,771,823,0.01,0.01,-0.48,0.13,0.3430,1,1,0,0.01,0.00,-0.59,-0.17,0.01,-0.07,0.13,182,30
2170,-19.9,-21.3,-2.4,0.096,-0.107,-1.061,-0.9,-3.1,0.0,0.0162,0.0135,-0.0158,770,891,780,778,0.01,0.01,-0.48,0.13,0.3435,1,1,0,0.01,0.00,-0.59,-0.17,0.01,-0.07,0.13,182,30
2180,-21.0,-29.0,5.7,0.142,-0.112,-0.946,-0.8,-3.2,0.0,0.0198,0.0245,-0.0183,772,901,773,782,0.01,0.01,-0.48,0.13,0.3443,1,1,0,0.01,0.00,-0.59,-0.17,0.01,-0.07,0.13,182,30
2190,-12.1,-32.8,1.1,0.135,-0.048,-0.992,-0.7,-3.1,0.0,0.0084,0.0234,-0.0167,802,897,745,777,0.01,0.01,-0.48,0.13,0.3428,1,1,0,0.01,0.00,-0.59,-0.17,0.01,-0.07,0.13,182,30
2200,-4.2,-32.0,1.1,0.181,-0.037,-1.039,-0.7,-3.1,0.0,0.0030,0.0275,-0.0170,807,881,730,791,0.01,0.01,-0.48,0.13,0.3414,1,1,0,0.01,0.00,-0.59,-0.17,0.01,-0.07,0.14,182,30
2210,-9.8,-12.8,6.9,0.150,-0.128,-1.068,-0.9,-3.2,0.0,0.0076,0.0059,-0.0189,760,860,766,809,0.01,0.01,-0.48,0.13,0.3406,1,1,0,0.01,0.00,-0.59,-0.17,0.01,-0.07,0.14,182,30
2221,-16.6,-3.4,-0.1,0.106,-0.176,-0.960,-1.0,-3.3,0.0,0.0143,-0.0019,-0.0170,738,851,794,811,0.01,0.01,-0.48,0.13,0.3414,1,1,0,0.01,0.00,-0.59,-0.17,0.01,-0.07,0.13,182,30
2231,-20.7,-3.6,6.1,0.063,-0.132,-0.837,-0.9,-3.3,0.0,0.0194,-0.0011,-0.0187,733,865,796,806,0.01,0.01,-0.48,0.13,0.3409,1,1,0,0.01,0.00,-0.59,-0.17,0.01,-0.07,0.13,182,30
2241,-16.2,-2.2,-1.1,0.125,-0.159,-0.808,-0.6,-3.2,0.0,0.0141,-0.0022,-0.0163,746,853,795,811,0.01,0.01,-0.48,0.13,0.3415,1,1,0,0.01,0.00,-0.59,-0.18,0.01,-0.07,0.13,182,30
2251,-14.6,-2.2,-6.4,0.031,-0.120,-0.812,-0.4,-3.0,0.0,0.0138,-0.0022,-0.0149,748,849,800,817,0.01,0.01,-0.48,0.13,0.3423,1,1,0,0.01,0.00,-0.59,-0.17,0.01,-0.07,0.13,182,30
2261,-13.5,-10.3,-2.1,-0.031,-0.066,-0.819,-0.4,-2.8,0.0,0.0111,0.0090,-0.0161,770,866,766,793,0.01,0.00,-0.48,0.13,0.3395,1,1,0,0.01,0.00,-0.59,-0.17,0.01,-0.07,0.13,182,30
2271,-16.9,-13.3,-11.3,-0.001,-0.128,-0.831,-0.5,-2.8,0.0,0.0160,0.0091,-0.0133,770,873,779,778,0.01,0.00,-0.48,0.13,0.3401,1,1,0,0.01,0.00,-0.59,-0.17,0.01,-0.07,0.13,182,30
2281,-11.2,-18.3,-3.7,0.002,-0.071,-0.944,-0.6,-3.0,0.0,0.0102,0.0139,-0.0157,784,876,760,791,0.01,0.01,-0.48,0.13,0.3415,1,1,0,0.01,0.00,-0.60,-0.17,0.01,-0.07,0.13,182,30
2291,-9.0,-17.7,-4.3,0.054,-0.090,-1.061,-0.7,-3.1,0.0,0.0067,0.0129,-0.0155,786,862,759,802,0.01,0.01,-0.48,0.13,0.3414,1,1,0,0.01,0.00,-0.60,-0.17,0.01,-0.07,0.13,182,30
2301,-9.0,-20.7,-9.9,0.054,-0.056,-1.006,-0.6,-3.0,0.0,0.0080,0.0163,-0.0138,779,859,769,798,0.01,0.01,-0.48,0.13,0.3414,1,1,0,0.01,0.00,-0.59,-0.17,0.01,-0.07,0.13,182,30
2311,-8.5,-24.9,-3.9,0.201,-0.073,-1.017,-0.4,-2.9,0.0,0.0084,0.0174,-0.0155,758,861,792,807,0.01,0.00,-0.48,0.13,0.3422,1,1,0,0.01,0.00,-0.59,-0.17,0.01,-0.07,0.13,182,30
2322,-7.7,0.8,-9.6,0.203,-0.139,-0.845,-0.3,-3.1,0.0,0.0069,-0.0054,-0.0137,708,799,844,857,0.01,0.00,-0.48,0.14,0.3409,1,1,0,0.01,0.00,-0.59,-0.17,0.01,-0.07,0.13,182,30
2332,-9.4,24.2,-4.1,0.101,-0.165,-0.700,-0.4,-3.2,0.0,0.0092,-0.0346,-0.0153,654,751,884,902,0.01,0.01,-0.48,0.14,0.3410,1,1,0,0.01,0.00,-0.60,-0.17,0.01,-0.07,0.13,182,30
2342,-8.7,27.0,-4.0,0.037,-0.177,-0.819,-0.5,-3.3,0.0,0.0077,-0.0318,-0.0154,683,767,862,891,0.01,0.01,-0.48,0.14,0.3402,1,1,0,0.01,0.00,-0.59,-0.17,0.01,-0.07,0.13,182,30
2352,-4.6,24.1,-5.7,-0.052,-0.183,-0.972,-0.8,-3.2,0.0,0.0034,-0.0289,-0.0150,730,794,822,873,0.01,0.01,-0.48,0.14,0.3424,1,1,0,0.01,0.00,-0.60,-0.17,0.01,-0.07,0.13,182,30
2362,-4.6,16.5,-2.0,-0.076,-0.191,-1.043,-1.0,-2.9,0.0,0.0019,-0.0190,-0.0160,748,805,798,862,0.01,0.01,-0.48,0.14,0.3416,1,1,0,0.01,0.00,-0.60,-0.17,0.01,-0.07,0.13,182,30
2372,-1.7,7.5,-8.9,-0.085,-0.071,-1.111,-0.9,-2.8,0.0,0.0003,-0.0119,-0.0140,783,820,774,843,0.01,0.01,-0.48,0.14,0.3425,1,1,0,0.01,0.00,-0.60,-0.17,0.01,-0.07,0.13,182,30
2382,0.7,-4.6,-0.9,-0.006,-0.002,-1.173,-0.7,-2.8,0.0,-0.0050,0.0051,-0.0166,800,836,747,837,0.01,0.01,-0.48,0.14,0.3423,1,1,0,0.01,0.00,-0.60,-0.17,0.01,-0.07,0.13,182,30
2392,9.5,-10.2,-3.1,0.035,0.022,-1.154,-0.6,-2.9,0.0,-0.0106,0.0058,-0.0157,818,828,730,836,0.01,0.01,-0.48,0.14,0.3414,1,1,0,0.01,0.00,-0.60,-0.17,0.01,-0.07,0.13,182,30
2402,17.9,-6.5,-7.9,0.051,0.071,-0.986,-0.7,-3.0,0.0,-0.0191,0.0020,-0.0143,815,797,734,861,0.01,0.01,-0.48,0.14,0.3408,1,1,0,0.01,0.00,-0.60,-0.17,0.01,-0.07,0.13,182,30
2412,18.1,10.4,2.6,0.020,0.062,-1.045,-0.9,-3.0,0.0,-0.0198,-0.0130,-0.0173,784,775,759,899,0.01,0.01,-0.48,0.14,0.3420,1,1,0,0.01,0.00,-0.60,-0.17,0.01,-0.07,0.13,182,30
2422,12.3,18.9,-6.0,-0.039,0.020,-1.025,-0.9,-3.1,0.0,-0.0137,-0.0237,-0.0147,765,762,790,901,0.01,0.01,-0.48,0.14,0.3424,1,1,0,0.01,0.00,-0.60,-0.17,0.01,-0.07,0.13,182,30
2433,10.8,23.4,-3.3,-0.018,0.031,-1.128,-0.9,-3.1,0.0,-0.0144,-0.0237,-0.0154,759,763,794,907,0.01,0.01,-0.48,0.14,0.3429,1,1,0,0.01,0.00,-0.60,-0.17,0.01,-0.07,0.13,182,30
2443,15.4,16.9,1.0,-0.075,0.130,-1.156,-0.8,-3.1,0.0,-0.0168,-0.0216,-0.0168,795,774,751,898,0.01,0.01,-0.48,0.14,0.3422,1,1,0,0.01,0.00,-0.60,-0.17,0.01,-0.07,0.13,182,30
2453,16.6,8.4,-4.1,-0.109,0.086,-1.237,-0.8,-2.9,0.0,-0.0180,-0.0129,-0.0152,821,789,731,876,0.01,0.01,-0.48,0.14,0.3421,1,1,0,0.01,0.00,-0.60,-0.17,0.01,-0.07,0.13,182,30
2463,22.2,5.4,3.7,0.045,0.102,-1.130,-1.0,-3.1,0.0,-0.0249,-0.0098,-0.0176,804,770,739,906,0.01,0.01,-0.48,0.14,0.3423,1,1,0,0.01,0.00,-0.60,-0.17,0.01,-0.07,0.13,182,30
2473,16.8,-2.6,1.5,0.099,0.079,-1.020,-1.1,-3.3,0.0,-0.0184,-0.0021,-0.0171,792,775,760,903,0.01,0.01,-0.48,0.14,0.3439,1,1,0,0.01,0.00,-0.60,-0.17,0.01,-0.07,0.13,182,30
2483,13.2,-3.0,0.6,0.058,0.137,-0.874,-1.1,-3.4,0.0,-0.0152,-0.0107,-0.0167,781,787,764,885,0.01,0.01,-0.48,0.14,0.3420,1,1,0,0.01,0.00,-0.60,-0.17,0.01,-0.07,0.13,182,30
2493,7.4,1.5,3.2,0.045,0.044,-0.905,-0.9,-3.4,0.0,-0.0088,-0.0063,-0.0178,758,788,781,882,0.01,0.01,-0.48,0.14,0.3412,1,1,0,0.01,0.00,-0.60,-0.17,0.01,-0.07,0.13,182,30
2503,7.2,13.6,1.4,0.070,0.088,-0.908,-0.8,-3.2,0.0,-0.0078,-0.0213,-0.0174,742,781,797,890,0.01,0.01,-0.48,0.14,0.3413,1,1,0,0.01,0.00,-0.60,-0.17,0.01,-0.07,0.13,182,30
2513,0.2,19.2,2.9,0.007,0.068,-1.155,-0.6,-3.1,0.0,-0.0013,-0.0239,-0.0179,726,790,814,887,0.01,0.01,-0.48,0.14,0.3422,1,1,0,0.01,0.00,-0.60,-0.17,0.01,-0.07,0.13,182,30
2523,3.0,4.2,0.9,0.001,0.013,-1.426,-0.6,-3.0,0.0,-0.0041,-0.0088,-0.0174,770,818,775,865,0.01,0.01,-0.48,0.14,0.3436,1,1,0,0.01,0.00,-0.60,-0.17,0.01,-0.07,0.13,182,30
2534,3.4,0.0,0.1,0.004,0.029,-1.131,-0.7,-3.0,0.0,-0.0045,-0.0045,-0.0171,783,819,768,870,0.01,0.01,-0.48,0.14,0.3451,1,1,0,0.01,0.00,-0.60,-0.17,0.01,-0.07,0.13,182,30
2544,5.3,-6.2,-2.3,-0.001,0.091,-0.896,-0.7,-3.2,0.0,-0.0066,0.0015,-0.0163,787,810,756,860,0.01,0.01,-0.48,0.14,0.3415,1,1,0,0.01,0.00,-0.60,-0.17,0.01,-0.07,0.14,182,30
2554,6.0,-7.8,-0.9,0.006,0.020,-0.842,-0.9,-3.2,0.0,-0.0111,0.0005,-0.0172,789,807,748,863,0.01,0.01,-0.48,0.14,0.3408,1,1,0,0.01,0.00,-0.60,-0.17,0.01,-0.07,0.13,182,30
2564,0.5,-17.3,5.9,0.056,0.011,-0.993,-0.9,-3.1,0.0,-0.0018,0.0127,-0.0185,793,853,743,828,0.01,0.01,-0.48,0.14,0.3421,1,1,0,0.01,0.00,-0.61,-0.17,0.01,-0.07,0.13,182,30
2574,-1.3,-21.0,-0.6,0.090,0.016,-1.079,-0.7,-3.0,0.0,0.0018,0.0164,-0.0169,795,873,754,805,0.01,0.01,-0.48,0.14,0.3435,1,1,0,0.01,0.00,-0.61,-0.18,0.01,-0.07,0.13,182,30
2584,-5.3,-13.7,3.1,0.091,-0.011,-1.167,-0.7,-2.9,0.0,0.0042,0.0093,-0.0173,799,897,785,824,0.01,0.01,-0.48,0.14,0.3538,1,1,0,0.01,0.00,-0.61,-0.18,0.01,-0.07,0.13,182,30
2594,-3.4,-5.7,3.5,0.037,-0.015,-1.086,-0.7,-3.0,0.0,0.0022,0.0012,-0.0173,788,875,800,846,0.01,0.01,-0.48,0.14,0.3542,1,1,0,0.01,0.00,-0.61,-0.18,0.01,-0.07,0.13,182,30
2604,3.0,0.0,-0.3,-0.017,0.024,-0.811,-0.7,-3.1,0.0,-0.0006,-0.0043,-0.0166,780,851,803,860,0.01,0.01,-0.48,0.14,0.3522,1,1,0,0.01,0.00,-0.61,-0.18,0.01,-0.07,0.13,182,30
2614,2.2,0.8,5.7,-0.032,0.006,-0.884,-0.8,-3.1,0.0,-0.0035,-0.0055,-0.0180,786,851,789,864,0.01,0.01,-0.48,0.14,0.3518,1,1,0,0.01,0.00,-0.61,-0.17,0.01,-0.07,0.13,182,30
2624,-0.8,2.8,-0.8,-0.066,0.033,-0.855,-0.7,-3.0,0.0,-0.0004,-0.0074,-0.0161,785,862,795,840,0.01,0.01,-0.48,0.14,0.3508,1,1,0,0.01,0.00,-0.61,-0.18,0.01,-0.07,0.13,182,30
2634,-4.2,5.3,0.2,-0.075,-0.056,-0.901,-0.6,-2.9,0.0,0.0037,-0.0065,-0.0167,785,867,801,847,0.01,0.01,-0.48,0.14,0.3532,1,1,0,0.01,0.00,-0.61,-0.18,0.01,-0.07,0.13,182,30
2645,-4.7,2.1,0.4,-0.090,-0.100,-1.054,-0.6,-2.8,0.0,0.0037,-0.0065,-0.0167,802,881,799,846,0.01,0.01,-0.48,0.14,0.3567,1,1,0,0.01,0.00,-0.61,-0.18,0.01,-0.07,0.13,182,30
2655,4.5,-0.4,-4.8,-0.013,-0.033,-1.098,-0.5,-2.8,0.0,-0.0053,-0.0024,-0.0154,816,856,786,867,0.01,0.01,-0.48,0.14,0.3563,1,1,0,0.01,0.00,-0.61,-0.18,0.01,-0.07,0.13,182,30
2665,9.3,4.9,2.8,0.045,0.000,-0.973,-0.6,-3.0,0.0,-0.0102,-0.0103,-0.0178,793,824,801,906,0.01,0.01,-0.48,0.14,0.3562,1,1,0,0.01,0.00,-0.61,-0.18,0.01,-0.07,0.14,182,30
2675,11.6,8.2,-4.4,0.026,0.057,-0.853,-0.6,-3.2,0.0,-0.0127,-0.0130,-0.0156,769,794,833,926,0.01,0.01,-0.48,0.14,0.3559,1,1,0,0.01,0.00,-0.61,-0.18,0.01,-0.07,0.13,182,30
2685,9.6,6.0,0.4,-0.042,0.041,-0.991,-0.6,-3.3,0.0,-0.0098,-0.0144,-0.0173,770,806,823,918,0.01,0.01,-0.48,0.14,0.3554,1,1,0,0.01,0.00,-0.61,-0.18,0.01,-0.07,0.13,182,30
2695,11.9,1.7,1.0,-0.009,0.056,-0.977,-0.7,-3.2,0.0,-0.0131,-0.0064,-0.0173,798,820,802,908,0.01,0.01,-0.48,0.14,0.3567,1,1,0,0.01,0.00,-0.61,-0.18,0.01,-0.07,0.13,182,30
2705,8.9,2.6,-5.7,-0.004,-0.046,-1.020,-0.7,-3.2,0.0,-0.0104,-0.0109,-0.0155,796,815,806,906,0.01,0.01,-0.48,0.14,0.3560,1,1,0,0.01,0.00,-0.61,-0.18,0.01,-0.07,0.13,182,30
2715,13.1,-5.3,6.9,0.024,0.111,-0.991,-0.8,-3.3,0.0,-0.0144,0.0004,-0.0190,797,824,791,907,0.01,0.01,-0.48,0.14,0.3556,1,1,0,0.01,0.00,-0.61,-0.18,0.01,-0.07,0.13,182,30
2725,15.4,-10.8,1.3,-0.013,0.140,-0.872,-0.8,-3.3,0.0,-0.0144,0.0011,-0.0169,816,832,783,894,0.01,0.01,-0.48,0.14,0.3562,1,1,0,0.01,0.00,-0.61,-0.18,0.01,-0.07,0.13,182,30
2735,15.2,-13.4,3.3,0.049,0.149,-0.739,-0.8,-3.4,0.0,-0.0166,0.0084,-0.0176,821,839,778,896,0.01,0.01,-0.48,0.14,0.3575,1,1,0,0.01,0.00,-0.61,-0.18,0.01,-0.07,0.13,182,30
2746,11.2,-14.7,8.1,0.135,0.097,-0.767,-0.9,-3.4,0.0,-0.0127,0.0058,-0.0187,796,824,798,909,0.01,0.01,-0.48,0.14,0.3568,1,1,0,0.01,0.00,-0.61,-0.18,0.01,-0.07,0.13,182,30
2756,4.5,-8.7,-0.9,0.130,0.069,-0.719,-0.9,-3.4,0.0,-0.0059,0.0036,-0.0159,756,806,840,911,0.01,0.01,-0.48,0.14,0.3548,1,1,0,0.01,0.00,-0.61,-0.18,0.01,-0.07,0.13,182,30
2766,0.0,-0.2,8.1,0.091,0.105,-0.987,-0.8,-3.3,0.0,-0.0007,-0.0091,-0.0188,740,824,846,910,0.01,0.01,-0.48,0.14,0.3557,1,1,0,0.01,0.00,-0.61,-0.18,0.01,-0.07,0.13,182,30
2776,-6.1,2.3,1.3,0.025,0.063,-1.122,-0.7,-3.2,0.0,0.0055,-0.0102,-0.0164,743,835,852,885,0.01,0.01,-0.48,0.14,0.3551,1,1,0,0.01,0.00,-0.61,-0.18,0.01,-0.07,0.13,182,30
2786,-3.3,-7.8,-0.3,0.058,-0.038,-1.209,-0.7,-3.1,0.0,0.0021,0.0030,-0.0160,788,860,804,866,0.01,0.01,-0.48,0.14,0.3554,1,1,0,0.01,0.00,-0.61,-0.18,0.01,-0.07,0.13,182,30
2796,-0.7,-9.2,6.6,0.044,0.007,-1.119,-0.8,-3.2,0.0,0.0002,0.0010,-0.0187,792,867,801,872,0.01,0.01,-0.48,0.14,0.3573,1,1,0,0.01,0.00,-0.61,-0.18,0.01,-0.07,0.13,182,30
2806,-1.7,-8.9,-5.4,0.052,0.026,-0.889,-0.8,-3.2,0.0,0.0004,0.0041,-0.0143,795,870,815,858,0.01,0.01,-0.48,0.14,0.3582,1,1,0,0.01,0.00,-0.61,-0.18,0.01,-0.07,0.13,182,30
2816,-7.8,-5.5,3.7,0.061,-0.070,-0.862,-0.8,-3.3,0.0,0.0081,-0.0021,-0.0177,778,878,826,864,0.01,0.01,-0.48,0.14,0.3591,1,1,0,0.01,0.00,-0.61,-0.18,0.01,-0.07,0.13,182,30
2826,-9.8,-4.2,2.1,0.091,-0.090,-0.822,-0.8,-3.3,0.0,0.0097,-0.0020,-0.0166,767,875,842,859,0.01,0.01,-0.48,0.14,0.3588,1,1,0,0.01,0.00,-0.61,-0.18,0.01,-0.07,0.13,182,30
2836,-4.6,-3.9,-6.7,0.028,-0.037,-0.780,-0.7,-3.3,0.0,0.0033,-0.0009,-0.0141,761,851,850,874,0.01,0.01,-0.48,0.14,0.3579,1,1,0,0.01,0.00,-0.61,-0.18,0.01,-0.07,0.13,182,30
2847,4.5,3.3,3.2,-0.010,0.062,-0.859,-0.7,-3.1,0.0,-0.0008,-0.0127,-0.0169,763,836,829,884,0.01,0.01,-0.48,0.14,0.3546,1,1,0,0.01,0.00,-0.61,-0.19,0.01,-0.07,0.13,182,30
2857,5.5,7.9,-6.9,0.053,0.033,-1.017,-0.7,-3.2,0.0,-0.0067,-0.0128,-0.0139,766,811,842,898,0.01,0.01,-0.48,0.14,0.3553,1,1,0,0.01,0.00,-0.62,-0.19,0.01,-0.07,0.13,182,30
2867,7.1,-2.1,-1.8,0.148,-0.049,-1.172,-0.8,-3.3,0.0,-0.0083,-0.0162,-0.0159,770,800,832,923,0.01,0.01,-0.48,0.14,0.3565,1,1,0,0.01,0.00,-0.62,-0.19,0.01,-0.07,0.13,182,30
2877,6.4,-9.0,2.5,0.087,0.063,-1.032,-0.8,-3.5,0.0,-0.0078,0.0040,-0.0169,749,793,858,934,0.01,0.01,-0.48,0.14,0.3574,1,1,0,0.01,0.00,-0.62,-0.18,0.01,-0.07,0.13,182,30
2887,11.0,-5.6,-4.8,0.027,0.144,-1.110,-0.8,-3.4,0.0,-0.0124,0.0006,-0.0148,790,812,820,910,0.01,0.01,-0.48,0.14,0.3574,1,1,0,0.01,0.00,-0.62,-0.18,0.01,-0.07,0.13,182,30
2897,11.0,6.0,5.3,0.028,0.130,-1.302,-0.8,-3.3,0.0,-0.0096,-0.0146,-0.0178,788,825,821,919,0.01,0.01,-0.48,0.14,0.3599,1,1,0,0.01,0.00,-0.62,-0.18,0.01,-0.07,0.13,182,30
2907,16.4,10.5,-1.5,0.005,0.211,-1.221,-0.8,-3.3,0.0,-0.0178,-0.0155,-0.0157,796,799,815,930,0.01,0.01,-0.48,0.14,0.3583,1,1,0,0.01,0.00,-0.62,-0.18,0.01,-0.07,0.13,182,30
2917,13.9,5.9,0.6,0.024,0.162,-1.168,-0.9,-3.3,0.0,-0.0152,-0.0119,-0.0166,801,814,806,922,0.01,0.01,-0.48,0.14,0.3586,1,1,0,0.01,0.00,-0.62,-0.18,0.01,-0.07,0.13,182,30
2927,6.2,7.0,1.8,0.019,0.122,-1.108,-0.9,-3.1,0.0,-0.0076,-0.0119,-0.0167,803,835,807,902,0.01,0.01,-0.48,0.14,0.3591,1,1,0,0.01,0.00,-0.62,-0.18,0.01,-0.07,0.13,182,30
2937,-1.6,10.8,0.0,0.022,0.010,-1.227,-0.8,-3.0,0.0,0.0003,-0.0155,-0.0162,793,850,817,887,0.01,0.01,-0.48,0.14,0.3592,1,1,0,0.01,0.00,-0.62,-0.18,0.01,-0.07,0.14,182,30
2947,0.6,7.8,3.7,0.084,-0.014,-1.202,-0.8,-3.0,0.0,-0.0053,-0.0104,-0.0180,803,842,803,903,0.01,0.01,-0.48,0.14,0.3597,1,1,0,0.01,0.00,-0.62,-0.18,0.01,-0.07,0.13,182,30
2958,3.5,8.3,-3.8,-0.034,-0.061,-1.049,-0.9,-2.9,0.0,-0.0049,-0.0130,-0.0151,811,838,797,890,0.01,0.01,-0.48,0.14,0.3578,1,1,0,0.01,0.00,-0.63,-0.17,0.01,-0.07,0.13,182,30
2968,2.8,9.5,-0.7,-0.015,-0.053,-1.132,-0.9,-2.9,0.0,-0.0042,-0.0141,-0.0161,812,842,796,892,0.01,0.01,-0.48,0.14,0.3587,1,1,0,0.01,0.00,-0.63,-0.17,0.01,-0.07,0.13,182,30
2978,3.1,-4.1,-1.6,-0.043,0.018,-1.078,-1.0,-3.0,0.0,-0.0048,0.0016,-0.0158,826,864,785,866,0.01,0.01,-0.48,0.14,0.3585,1,1,0,0.01,0.00,-0.63,-0.18,0.01,-0.07,0.13,182,30
2988,4.9,-12.4,-2.5,-0.033,0.012,-0.931,-1.0,-3.1,0.0,-0.0064,0.0076,-0.0156,836,883,770,844,0.01,0.01,-0.48,0.14,0.3574,1,1,0,0.01,0.00,-0.63,-0.18,0.01,-0.07,0.13,182,30
2998,6.0,-7.0,0.4,-0.026,-0.036,-0.994,-0.9,-3.2,0.0,-0.0060,0.0067,-0.0166,824,867,773,857,0.01,0.01,-0.48,0.13,0.3558,1,1,0,0.01,0.00,-0.63,-0.18,0.01,-0.07,0.13,182,30
3008,10.3,1.1,-8.6,-0.037,0.056,-1.062,-0.9,-3.3,0.0,-0.0118,-0.0061,-0.0138,814,837,792,873,0.01,0.01,-0.48,0.13,0.3553,1,1,0,0.01,0.00,-0.63,-0.18,0.01,-0.07,0.13,182,30
3018,9.4,15.6,-4.8,-0.053,0.045,-1.095,-1.0,-3.3,0.0,-0.0109,-0.0196,-0.0150,796,814,806,904,0.01,0.01,-0.48,0.13,0.3557,1,1,0,0.01,0.00,-0.63,-0.17,0.01,-0.07,0.13,182,30
3028,5.9,17.6,-9.0,-0.063,-0.015,-1.284,-1.2,-3.4,0.0,-0.0087,-0.0181,-0.0135,801,817,819,906,0.01,0.01,-0.48,0.13,0.3587,1,1,0,0.01,0.00,-0.63,-0.17,0.01,-0.07,0.13,182,30
3038,5.4,14.5,-10.0,-0.074,-0.002,-1.245,-1.2,-3.5,0.0,-0.0071,-0.0198,-0.0134,800,816,822,911,0.01,0.01,-0.48,0.13,0.3596,1,1,0,0.01,0.00,-0.63,-0.17,0.01,-0.07,0.13,182,30
3048,10.5,5.5,-1.1,-0.109,0.138,-1.052,-1.1,-3.4,0.0,-0.0135,-0.0036,-0.0158,834,841,783,894,0.01,0.01,-0.48,0.13,0.3598,1,1,0,0.01,0.00,-0.63,-0.18,0.01,-0.07,0.13,182,30
3058,10.9,-3.9,-8.3,-0.051,0.168,-1.136,-0.9,-3.4,0.0,-0.0130,0.0012,-0.0138,847,847,775,880,0.01,0.01,-0.48,0.13,0.3595,1,1,0,0.01,0.00,-0.63,-0.18,0.01,-0.07,0.13,182,30
3069,13.2,-9.6,5.5,-0.009,0.131,-1.163,-0.8,-3.2,0.0,-0.0145,0.0047,-0.0181,859,866,745,873,0.01,0.01,-0.48,0.13,0.3589,1,1,0,0.01,0.00,-0.63,-0.18,0.01,-0.07,0.13,182,30
3079,7.9,-9.7,-0.1,0.017,0.063,-1.154,-0.9,-3.1,0.0,-0.0126,0.0118,-0.0161,852,866,760,869,0.01,0.01,-0.48,0.13,0.3591,1,1,0,0.01,0.00,-0.63,-0.17,0.01,-0.07,0.13,182,30
3089,10.4,-9.6,-1.4,0.024,0.083,-1.105,-1.0,-2.9,0.0,-0.0119,0.0049,-0.0162,856,865,760,876,0.01,0.01,-0.48,0.13,0.3607,1,1,0,0.01,0.00,-0.63,-0.17,0.01,-0.07,0.13,182,30
3099,3.5,-3.2,8.8,0.028,0.038,-1.042,-1.0,-2.8,0.0,-0.0067,0.0002,-0.0192,835,863,771,886,0.01,0.01,-0.48,0.13,0.3602,1,1,0,0.01,0.00,-0.63,-0.18,0.01,-0.07,0.13,182,30
3109,-1.1,-6.1,-6.4,0.000,0.005,-0.987,-0.8,-2.8,0.0,-0.0013,0.0020,-0.0146,821,863,800,868,0.01,0.01,-0.48,0.13,0.3597,1,1,0,0.01,0.00,-0.63,-0.18,0.01,-0.07,0.13,182,30
3119,-5.0,-15.2,5.3,0.013,-0.052,-1.001,-0.7,-2.9,0.0,0.0038,0.0106,-0.0185,821,888,780,859,0.01,0.01,-0.48,0.13,0.3597,1,1,0,0.01,0.00,-0.63,-0.18,0.01,-0.07,0.13,183,30
3129,-2.1,-16.6,0.8,0.097,-0.067,-0.911,-0.8,-3.1,0.0,-0.0039,0.0094,-0.0172,825,875,774,854,0.01,0.01,-0.48,0.13,0.3566,1,1,0,0.01,0.00,-0.63,-0.18,0.01,-0.07,0.13,183,30
3159,-2.6,11.5,-11.0,0.030,-0.211,-1.046,-1.3,-3.2,0.0,0.0000,-0.0148,-0.0138,793,840,827,888,0.01,0.01,-0.48,0.13,0.3588,1,1,0,0.01,0.00,-0.63,-0.18,0.01,-0.07,0.13,183,30
3169,-2.6,31.7,-4.4,0.012,-0.179,-1.084,-1.4,-3.4,0.0,0.0007,-0.0370,-0.0159,761,813,853,933,0.01,0.01,-0.48,0.13,0.3591,1,1,0,0.01,0.00,-0.63,-0.18,0.01,-0.07,0.13,183,30
3180,-2.0,24.4,-1.0,-0.035,-0.111,-0.957,-1.3,-3.5,0.0,-0.0011,-0.0276,-0.0167,757,816,857,925,0.01,0.01,-0.48,0.13,0.3585,1,1,0,0.01,0.00,-0.63,-0.18,0.01,-0.07,0.13,183,30
3190,2.4,11.3,-13.8,0.030,-0.037,-1.091,-1.2,-3.5,0.0,-0.0042,-0.0166,-0.0132,790,824,828,901,0.01,0.01,-0.48,0.13,0.3576,1,1,0,0.01,0.00,-0.63,-0.18,0.01,-0.07,0.13,183,30
3200,5.0,4.0,3.7,-0.011,0.027,-1.063,-1.2,-3.4,0.0,-0.0071,-0.0098,-0.0186,794,837,805,905,0.01,0.01,-0.48,0.13,0.3597,1,1,0,0.01,0.00,-0.63,-0.18,0.01,-0.07,0.13,183,30
3210,6.2,-7.3,-3.4,0.012,-0.003,-0.819,-1.2,-3.4,0.0,-0.0080,0.0021,-0.0164,822,843,791,888,0.01,0.01,-0.48,0.13,0.3603,1,1,0,0.01,0.00,-0.63,-0.18,0.01,-0.07,0.13,183,30
3220,2.7,-11.4,0.5,-0.024,-0.080,-0.791,-1.2,-3.3,0.0,-0.0045,0.0063,-0.0179,815,861,789,880,0.01,0.01,-0.47,0.13,0.3598,1,1,0,0.01,0.00,-0.63,-0.18,0.01,-0.07,0.13,183,30
3230,3.7,-7.1,10.9,0.140,0.018,-0.780,-1.2,-3.3,0.0,-0.0060,0.0009,-0.0207,805,856,786,888,0.01,0.01,-0.47,0.13,0.3572,1,1,0,0.01,0.00,-0.63,-0.18,0.01,-0.07,0.13,183,30
3240,4.9,-8.6,-2.7,0.097,0.045,-0.615,-1.1,-3.4,0.0,-0.0079,0.0026,-0.0168,815,833,782,885,0.01,0.01,-0.47,0.13,0.3545,1,1,0,0.01,0.00,-0.63,-0.18,0.01,-0.07,0.13,183,30
3250,3.7,2.4,14.8,0.057,0.016,-0.689,-1.0,-3.4,0.0,-0.0060,-0.0088,-0.0224,782,841,798,909,0.01,0.01,-0.47,0.13,0.3558,1,1,0,0.01,0.00,-0.63,-0.18,0.01,-0.07,0.13,183,30
3260,3.2,-7.3,1.8,0.089,-0.006,-1.001,-1.1,-3.4,0.0,-0.0049,0.0022,-0.0184,803,844,806,901,0.01,0.01,-0.47,0.13,0.3584,1,1,0,0.01,0.00,-0.63,-0.18,0.01,-0.07,0.13,183,30
3271,-1.8,-3.9,1.4,0.084,-0.084,-1.040,-1.2,-3.4,0.0,-0.0023,-0.0071,-0.0189,795,857,813,893,0.01,0.01,-0.47,0.13,0.3595,1,1,0,0.01,0.00,-0.64,-0.18,0.01,-0.07,0.13,183,30
3281,-12.9,4.2,12.7,0.064,-0.122,-1.087,-1.3,-3.4,0.0,0.0111,-0.0094,-0.0218,760,876,834,882,0.01,0.01,-0.47,0.13,0.3587,1,1,0,0.01,0.00,-0.64,-0.18,0.01,-0.07,0.13,183,30
3291,-17.7,5.8,-4.9,0.013,-0.170,-1.073,-1.4,-3.4,0.0,0.0128,-0.0074,-0.0169,767,880,844,859,0.01,0.01,-0.47,0.13,0.3585,1,1,0,0.01,0.00,-0.64,-0.18,0.01,-0.07,0.13,183,30
3301,-20.7,-1.5,5.2,-0.009,-0.133,-1.023,-1.3,-3.3,0.0,0.0190,-0.0036,-0.0198,772,911,817,835,0.01,0.01,-0.47,0.13,0.3584,1,1,0,0.01,0.00,-0.64,-0.18,0.01,-0.07,0.13,183,30
3311,-9.7,-10.1,0.2,-0.022,-0.085,-0.982,-1.3,-3.2,0.0,0.0079,0.0050,-0.0182,815,905,792,840,0.01,0.01,-0.47,0.13,0.3612,1,1,0,0.01,0.00,-0.64,-0.18,0.01,-0.07,0.13,183,30
3321,-5.9,-1.3,-6.2,-0.011,-0.114,-0.896,-1.3,-3.2,0.0,0.0023,0.0020,-0.0167,807,879,808,863,0.01,0.01,-0.47,0.13,0.3612,1,1,0,0.01,0.00,-0.64,-0.18,0.01,-0.07,0.13,183,30
3331,-8.3,-5.6,3.9,-0.017,-0.076,-0.757,-1.3,-3.2,0.0,0.0065,0.0005,-0.0194,800,893,806,857,0.01,0.01,-0.47,0.13,0.3611,1,1,0,0.01,0.00,-0.64,-0.18,0.01,-0.07,0.13,183,30
3341,-9.1,-12.2,-10.8,0.051,-0.054,-0.910,-1.2,-3.4,0.0,0.0073,0.0071,-0.0150,807,891,813,842,0.01,0.01,-0.47,0.13,0.3610,1,1,0,0.01,0.00,-0.64,-0.18,0.01,-0.07,0.13,183,30
3351,-2.6,-20.0,1.4,0.027,0.054,-0.944,-1.1,-3.4,0.0,0.0012,0.0136,-0.0188,814,893,785,848,0.01,0.01,-0.47,0.13,0.3597,1,1,0,0.01,0.00,-0.64,-0.18,0.01,-0.07,0.13,183,30
3361,3.5,-23.2,0.0,0.082,0.085,-0.841,-1.2,-3.3,0.0,-0.0052,0.0181,-0.0183,823,873,778,856,0.01,0.01,-0.47,0.13,0.3587,1,1,0,0.01,0.00,-0.64,-0.18,0.01,-0.07,0.13,183,30
3372,6.4,-12.1,-3.2,0.155,0.066,-0.794,-1.2,-3.4,0.0,-0.0088,0.0053,-0.0174,822,852,782,881,0.01,0.01,-0.47,0.13,0.3582,1,1,0,0.01,0.00,-0.64,-0.17,0.01,-0.07,0.13,183,30
3382,2.7,1.1,12.5,0.116,0.020,-0.927,-1.3,-3.6,0.0,-0.0046,-0.0065,-0.0224,772,835,815,917,0.01,0.01,-0.47,0.13,0.3578,1,1,0,0.01,0.00,-0.64,-0.17,0.01,-0.07,0.13,183,30
3392,-4.9,5.4,-0.6,0.128,-0.028,-1.038,-1.3,-3.8,0.0,0.0020,-0.0181,-0.0178,766,841,842,902,0.01,0.01,-0.47,0.13,0.3603,1,1,0,0.01,0.00,-0.64,-0.17,0.01,-0.07,0.13,183,30
3402,-11.7,6.4,3.7,0.061,-0.062,-0.973,-1.2,-3.9,0.0,0.0099,-0.0121,-0.0202,757,862,841,887,0.01,0.01,-0.47,0.13,0.3586,1,1,0,0.01,0.00,-0.64,-0.18,0.01,-0.07,0.13,183,30
3412,-12.5,0.0,13.7,-0.003,-0.069,-0.974,-1.1,-3.7,0.0,0.0108,-0.0051,-0.0229,769,890,821,868,0.01,0.01,-0.47,0.13,0.3589,1,1,0,0.01,0.00,-0.64,-0.18,0.01,-0.07,0.13,183,30
3422,-7.5,-7.0,-0.4,0.007,-0.049,-1.162,-1.1,-3.5,0.0,0.0048,0.0061,-0.0193,806,898,801,856,0.01,0.01,-0.47,0.13,0.3611,1,1,0,0.01,0.00,-0.64,-0.17,0.01,-0.07,0.13,183,30
3432,-7.4,-5.0,8.7,-0.032,0.000,-1.209,-1.0,-3.4,0.0,0.0059,-0.0001,-0.0222,795,900,804,871,0.01,0.01,-0.47,0.13,0.3633,1,1,0,0.01,0.00,-0.64,-0.17,0.01,-0.07,0.13,183,30
3442,-7.9,-18.0,-1.2,-0.095,0.011,-1.068,-0.9,-3.3,0.0,0.0064,0.0121,-0.0189,818,914,796,844,0.01,0.01,-0.47,0.13,0.3644,1,1,0,0.01,0.00,-0.64,-0.18,0.01,-0.07,0.13,183,30
3452,-4.1,-17.6,-0.1,-0.111,-0.023,-0.794,-0.8,-3.2,0.0,0.0027,0.0126,-0.0198,833,920,769,837,0.01,0.01,-0.47,0.13,0.3638,1,1,0,0.01,0.00,-0.65,-0.17,0.01,-0.07,0.13,183,30
3462,4.7,-6.8,5.8,-0.115,-0.014,-0.838,-0.9,-3.1,0.0,-0.0067,0.0058,-0.0215,836,891,762,869,0.01,0.01,-0.47,0.13,0.3616,1,1,0,0.01,0.00,-0.65,-0.17,0.01,-0.07,0.13,183,30
3473,11.5,-2.3,-8.1,-0.040,-0.019,-0.950,-1.1,-3.3,0.0,-0.0132,0.0002,-0.0174,833,853,776,887,0.01,0.01,-0.47,0.13,0.3597,1,1,0,0.01,0.00,-0.65,-0.17,0.01,-0.07,0.13,183,30
3483,10.6,8.4,5.8,-0.013,-0.090,-0.872,-1.3,-3.4,0.0,-0.0125,-0.0137,-0.0219,789,822,797,927,0.01,0.01,-0.47,0.13,0.3582,1,1,0,0.01,0.00,-0.65,-0.17,0.01,-0.07,0.13,183,30
3493,9.0,3.5,0.7,-0.005,0.009,-0.926,-1.5,-3.6,0.0,-0.0076,-0.0170,-0.0193,778,822,814,915,0.01,0.01,-0.47,0.13,0.3566,1,1,0,0.01,0.00,-0.65,-0.17,0.01,-0.07,0.13,183,30
3503,14.0,1.1,-1.8,0.053,0.139,-0.981,-1.5,-3.8,0.0,-0.0162,-0.0068,-0.0197,780,815,810,924,0.01,0.01,-0.47,0.13,0.3575,1,1,0,0.01,0.00,-0.65,-0.17,0.01,-0.07,0.13,183,30
3513,11.1,-1.1,10.9,0.029,0.175,-0.950,-1.5,-3.8,0.0,-0.0124,-0.0060,-0.0232,793,841,790,914,0.01,0.01,-0.47,0.13,0.3591,1,1,0,0.01,0.00,-0.64,-0.17,0.01,-0.07,0.13,183,30
3523,10.4,3.6,-3.2,0.074,0.151,-0.872,-1.5,-4.0,0.0,-0.0102,-0.0127,-0.0187,789,830,819,916,0.01,0.01,-0.47,0.13,0.3603,1,1,0,0.01,0.00,-0.64,-0.16,0.01,-0.07,0.13,183,30
3533,1.8,15.6,8.3,0.099,0.100,-1.006,-1.6,-4.1,0.0,-0.0040,-0.0217,-0.0228,741,826,854,940,0.01,0.01,-0.46,0.13,0.3601,1,1,0,0.01,0.00,-0.64,-0.16,0.01,-0.07,0.13,183,30
3543,3.2,18.2,10.0,0.076,0.074,-1.081,-1.7,-3.9,0.0,-0.0014,-0.0297,-0.0223,747,826,854,944,0.01,0.01,-0.47,0.13,0.3601,1,1,0,0.01,0.00,-0.64,-0.16,0.01,-0.07,0.13,183,30
3553,-6.8,29.6,1.8,0.055,-0.008,-1.334,-1.7,-3.6,0.0,0.0044,-0.0353,-0.0210,719,826,892,946,0.01,0.01,-0.46,0.13,0.3621,1,1,0,0.01,0.00,-0.64,-0.17,0.01,-0.07,0.13,183,30
3563,-15.9,25.3,15.2,-0.170,-0.035,-1.118,-1.7,-3.3,0.0,0.0147,-0.0288,-0.0251,712,863,877,916,0.01,0.01,-0.46,0.13,0.3616,1,1,0,0.01,0.00,-0.64,-0.17,0.01,-0.07,0.13,183,30
3573,-16.0,8.2,-3.2,-0.216,-0.089,-1.166,-1.6,-3.0,0.0,0.0147,-0.0083,-0.0195,779,914,834,848,0.01,0.01,-0.46,0.13,0.3635,1,1,0,0.01,0.00,-0.65,-0.17,0.01,-0.07,0.13,183,30
3584,-8.3,14.8,5.0,-0.182,-0.114,-1.092,-1.5,-3.0,0.0,0.0069,0.0004,-0.0232,811,928,788,852,0.01,0.01,-0.46,0.13,0.3660,1,1,0,0.01,0.00,-0.65,-0.17,0.01,-0.07,0.12,183,30
3594,-5.0,-2.5,2.6,-0.148,-0.008,-0.925,-1.5,-3.4,0.0,0.0038,0.0116,-0.0211,818,913,789,854,0.01,0.01,-0.46,0.13,0.3636,1,1,0,0.01,0.00,-0.65,-0.17,0.01,-0.07,0.13,183,30
3604,-0.1,-23.3,-5.4,-0.002,0.007,-0.887,-1.3,-3.7,0.0,-0.0017,0.0178,-0.0190,843,921,754,820,0.01,0.01,-0.46,0.13,0.3572,1,1,0,0.01,0.00,-0.65,-0.18,0.01,-0.07,0.13,183,30
3614,-1.9,-23.6,12.9,0.131,-0.033,-0.815,-1.1,-4.0,0.0,0.0002,0.0177,-0.0246,809,905,760,849,0.01,0.01,-0.46,0.13,0.3565,1,1,0,0.01,0.00,-0.65,-0.18,0.01,-0.07,0.13,183,30
3624,-2.7,-25.8,0.7,0.098,-0.013,-0.796,-1.0,-4.0,0.0,0.0030,0.0082,-0.0206,804,894,785,851,0.01,0.01,-0.46,0.13,0.3587,1,1,0,0.01,0.00,-0.64,-0.18,0.01,-0.07,0.13,183,30
3634,-1.0,-19.0,8.5,0.083,0.015,-0.918,-1.0,-3.6,0.0,-0.0005,0.0135,-0.0236,794,895,797,875,0.01,0.01,-0.46,0.13,0.3616,1,1,0,0.01,0.00,-0.65,-0.18,0.01,-0.07,0.13,183,30
3644,9.9,-6.1,10.8,0.067,0.128,-0.809,-1.0,-3.7,0.0,-0.0084,-0.0032,-0.0237,808,866,788,910,0.01,0.01,-0.46,0.13,0.3625,1,1,0,0.01,0.00,-0.65,-0.17,0.01,-0.07,0.13,183,30
3654,13.2,-0.5,1.7,0.091,0.177,-0.826,-1.1,-3.7,0.0,-0.0144,-0.0063,-0.0219,811,845,796,927,0.01,0.01,-0.46,0.13,0.3636,1,1,0,0.01,0.00,-0.65,-0.17,0.01,-0.07,0.13,183,30
3664,12.5,1.2,16.3,0.152,0.083,-1.131,-1.3,-3.8,0.0,-0.0144,-0.0069,-0.0263,790,840,809,958,0.01,0.01,-0.46,0.13,0.3659,1,1,0,0.01,0.00,-0.65,-0.17,0.01,-0.07,0.13,183,30
3674,9.3,2.4,1.5,0.166,0.021,-1.134,-1.6,-3.8,0.0,-0.0131,-0.0180,-0.0218,803,835,821,953,0.01,0.01,-0.46,0.13,0.3679,1,1,0,0.01,0.00,-0.65,-0.17,0.01,-0.07,0.13,183,30
3684,0.3,4.0,10.2,0.185,-0.087,-1.292,-1.6,-3.7,0.0,-0.0026,-0.0097,-0.0249,765,848,830,940,0.01,0.01,-0.46,0.13,0.3640,1,1,0,0.01,0.00,-0.65,-0.17,0.01,-0.07,0.13,183,30
3695,-10.5,-2.8,9.8,0.059,-0.046,-1.168,-1.5,-3.5,0.0,0.0099,-0.0097,-0.0246,748,881,839,892,0.01,0.01,-0.46,0.13,0.3610,1,1,0,0.01,0.00,-0.65,-0.17,0.01,-0.07,0.13,183,30
3705,-9.5,-2.3,-6.2,0.039,-0.067,-1.138,-1.3,-3.2,0.0,0.0089,-0.0029,-0.0203,771,892,825,861,0.01,0.01,-0.46,0.13,0.3596,1,1,0,0.01,0.00,-0.65,-0.17,0.01,-0.07,0.13,183,30
3715,5.3,11.5,3.1,-0.073,0.038,-0.991,-1.2,-3.1,0.0,-0.0072,-0.0166,-0.0228,778,857,811,912,0.01,0.01,-0.46,0.13,0.3608,1,1,0,0.01,0.00,-0.65,-0.17,0.01,-0.07,0.13,183,30
3725,7.7,18.4,-13.8,-0.071,0.001,-1.076,-1.1,-3.3,0.0,-0.0095,-0.0233,-0.0177,786,820,834,936,0.01,0.01,-0.46,0.13,0.3631,1,1,0,0.01,0.00,-0.65,-0.17,0.01,-0.07,0.13,183,30
3735,12.9,27.8,-3.7,-0.097,0.033,-0.997,-1.1,-3.4,0.0,-0.0147,-0.0332,-0.0208,788,811,819,958,0.01,0.01,-0.46,0.13,0.3631,1,1,0,0.01,0.00,-0.66,-0.17,0.01,-0.07,0.13,183,30
3745,17.1,26.8,-0.1,-0.073,0.067,-0.934,-1.2,-3.5,0.0,-0.0184,-0.0282,-0.0210,879,889,917,1065,0.01,0.01,-0.46,0.13,0.4126,1,1,0,0.01,0.00,-0.65,-0.17,0.01,-0.07,0.13,183,30
3755,18.8,2.4,-5.1,-0.084,0.076,-0.952,-1.4,-3.4,0.0,-0.0219,-0.0068,-0.0203,932,922,864,1026,0.01,0.01,-0.46,0.13,0.4118,1,1,0,0.01,0.00,-0.65,-0.16,0.01,-0.07,0.13,183,30
3765,11.7,-1.2,9.9,-0.049,0.082,-1.095,-1.5,-3.2,0.0,-0.0138,-0.0039,-0.0248,918,944,848,1009,0.01,0.01,-0.46,0.13,0.4085,1,1,0,0.01,0.00,-0.66,-0.16,0.01,-0.07,0.13,183,30
3775,2.0,3.4,-2.8,0.125,0.031,-1.093,-1.5,-3.1,0.0,-0.0094,-0.0004,-0.0210,904,948,870,985,0.01,0.01,-0.46,0.13,0.4069,1,1,0,0.01,0.00,-0.65,-0.16,0.01,-0.07,0.13,183,30
3785,-2.9,4.1,9.4,0.157,-0.024,-1.125,-1.4,-3.3,0.0,0.0008,-0.0094,-0.0249,852,940,892,993,0.01,0.01,-0.46,0.13,0.4029,1,1,0,0.01,0.00,-0.66,-0.16,0.01,-0.07,0.13,183,30
3795,-5.2,-2.3,3.7,0.018,-0.137,-0.998,-1.5,-3.4,0.0,0.0004,-0.0069,-0.0230,858,946,886,971,0.01,0.01,-0.46,0.13,0.4008,1,1,0,0.01,0.00,-0.66,-0.16,0.01,-0.07,0.13,183,30
3806,-2.2,6.2,-3.9,-0.143,-0.151,-0.829,-1.4,-3.5,0.0,0.0002,-0.0117,-0.0212,848,931,887,968,0.01,0.01,-0.46,0.13,0.3972,1,1,0,0.01,0.00,-0.66,-0.16,0.01,-0.07,0.13,183,30
3816,-6.7,-1.3,6.8,-0.068,-0.097,-0.776,-1.4,-4.0,0.0,0.0047,-0.0046,-0.0243,833,934,887,965,0.01,0.01,-0.46,0.13,0.3953,1,1,0,0.01,0.00,-0.66,-0.16,0.01,-0.07,0.13,183,30
3826,1.1,-11.3,-11.2,-0.006,0.054,-0.839,-1.4,-4.3,0.0,-0.0035,0.0058,-0.0188,883,939,848,931,0.01,0.01,-0.46,0.13,0.3927,1,1,0,0.01,0.00,-0.66,-0.16,0.01,-0.07,0.13,182,30
3836,-8.9,-11.6,13.3,0.132,-0.045,-1.033,-1.5,-4.4,0.0,0.0068,0.0052,-0.0267,865,961,833,937,0.01,0.01,-0.46,0.13,0.3922,1,1,0,0.01,0.00,-0.66,-0.16,0.01,-0.07,0.14,182,30
3846,-7.6,-6.4,10.4,0.106,-0.091,-1.072,-1.4,-4.5,0.0,0.0037,0.0054,-0.0249,855,963,848,928,0.01,0.01,-0.46,0.13,0.3920,1,1,0,0.01,0.00,-0.66,-0.16,0.01,-0.07,0.13,182,30
3856,-7.0,-5.2,3.6,-0.018,-0.125,-1.045,-1.3,-4.7,0.0,0.0050,-0.0014,-0.0241,836,950,851,927,0.01,0.01,-0.46,0.13,0.3880,1,1,0,0.01,0.00,-0.66,-0.16,0.01,-0.07,0.13,182,30
3866,-8.6,3.5,18.2,-0.173,-0.188,-1.030,-1.2,-4.5,0.0,0.0070,-0.0060,-0.0288,839,974,830,920,0.01,0.01,-0.45,0.13,0.3879,1,1,0,0.01,0.00,-0.66,-0.16,0.01,-0.07,0.13,182,30
3876,-3.6,15.9,-11.8,-0.077,-0.176,-1.050,-1.1,-4.6,0.0,0.0033,-0.0094,-0.0204,827,917,875,940,0.01,0.01,-0.46,0.13,0.3873,1,1,0,0.01,0.00,-0.66,-0.16,0.01,-0.07,0.13,182,30
3886,3.8,12.3,1.8,-0.037,0.042,-0.961,-1.0,-4.9,0.0,-0.0023,-0.0153,-0.0249,818,914,865,963,0.01,0.01,-0.45,0.14,0.3875,1,1,0,0.01,0.00,-0.67,-0.16,0.01,-0.07,0.13,182,30
3896,9.7,-2.8,-4.9,-0.027,0.202,-1.058,-0.9,-4.9,0.0,-0.0109,-0.0034,-0.0214,858,902,832,949,0.01,0.01,-0.45,0.14,0.3849,1,1,0,0.01,0.00,-0.66,-0.16,0.01,-0.07,0.14,181,30
3907,4.1,-12.7,-10.9,0.096,0.156,-1.101,-0.9,-4.8,0.0,-0.0057,0.0058,-0.0202,884,924,807,923,0.01,0.01,-0.45,0.14,0.3847,1,1,0,0.01,0.00,-0.66,-0.15,0.01,-0.07,0.14,181,30
3917,-6.0,-14.3,18.6,0.115,0.022,-1.189,-0.8,-4.6,0.0,0.0020,0.0116,-0.0283,847,962,811,910,0.01,0.01,-0.45,0.14,0.3835,1,1,0,0.01,0.00,-0.66,-0.15,0.01,-0.07,0.14,181,30
3927,-3.6,-13.3,-2.3,0.043,-0.102,-1.079,-0.8,-4.5,0.0,0.0022,0.0068,-0.0230,867,958,813,892,0.01,0.01,-0.45,0.14,0.3836,1,1,0,0.01,0.00,-0.66,-0.15,0.01,-0.07,0.14,180,30
3937,-1.9,-5.9,15.4,-0.048,-0.180,-1.093,-1.0,-4.2,0.0,-0.0013,0.0126,-0.0298,851,958,798,916,0.01,0.01,-0.45,0.14,0.3825,1,1,0,0.01,0.00,-0.67,-0.14,0.01,-0.07,0.14,180,30
3947,2.6,14.0,-1.2,0.004,-0.168,-0.834,-1.1,-4.1,0.0,-0.0044,-0.0203,-0.0236,832,900,829,945,0.01,0.01,-0.45,0.14,0.3802,1,1,0,0.01,0.00,-0.67,-0.15,0.01,-0.07,0.14,180,30
3957,-2.7,15.9,-17.8,-0.074,-0.128,-1.171,-1.2,-4.1,0.0,0.0008,-0.0222,-0.0190,799,877,884,955,0.01,0.01,-0.45,0.14,0.3816,1,1,0,0.01,0.00,-0.67,-0.15,0.01,-0.07,0.14,180,30
3967,0.9,-0.1,10.4,-0.149,0.057,-0.981,-1.3,-3.9,0.0,-0.0019,-0.0062,-0.0271,813,913,838,940,0.01,0.01,-0.45,0.14,0.3801,1,1,0,0.01,0.00,-0.67,-0.14,0.01,-0.07,0.14,180,30
3977,3.0,-5.8,-13.7,-0.022,0.095,-1.004,-1.5,-3.6,0.0,-0.0051,0.0001,-0.0202,854,915,832,918,0.01,0.01,-0.45,0.15,0.3819,1,1,0,0.01,0.00,-0.67,-0.14,0.01,-0.07,0.14,180,30
3987,-4.2,8.0,17.6,-0.007,-0.033,-1.043,-1.5,-3.3,0.0,0.0028,-0.0114,-0.0300,802,928,839,939,0.01,0.01,-0.45,0.15,0.3806,1,1,0,0.01,0.00,-0.67,-0.14,0.01,-0.07,0.14,179,30
3998,1.4,5.4,14.3,-0.028,-0.036,-1.077,-1.7,-3.1,0.0,-0.0038,-0.0107,-0.0288,823,918,833,947,0.01,0.01,-0.45,0.15,0.3823,1,1,0,0.01,0.00,-0.67,-0.14,0.01,-0.07,0.14,179,30
4008,5.7,-0.5,2.9,0.016,-0.016,-1.091,-1.8,-3.0,0.0,-0.0040,-0.0006,-0.0272,831,919,819,936,0.01,0.01,-0.45,0.15,0.3802,1,1,0,0.01,0.00,-0.67,-0.14,0.01,-0.07,0.15,179,30
4018,2.2,8.2,21.3,-0.104,-0.099,-1.040,-2.0,-2.9,0.0,-0.0049,-0.0132,-0.0314,815,920,815,958,0.01,0.01,-0.45,0.15,0.3806,1,1,0,0.01,0.00,-0.67,-0.14,0.01,-0.07,0.15,179,30
4028,7.7,16.2,-21.7,-0.136,-0.070,-1.033,-2.2,-2.9,0.0,-0.0083,-0.0145,-0.0197,828,871,851,957,0.01,0.01,-0.45,0.15,0.3804,1,1,0,0.01,0.00,-0.67,-0.14,0.01,-0.07,0.15,179,30
4038,9.7,15.7,-0.4,-0.121,0.044,-0.984,-2.4,-3.0,0.0,-0.0124,-0.0182,-0.0257,822,880,827,970,0.01,0.01,-0.45,0.15,0.3794,1,1,0,0.01,0.00,-0.68,-0.13,0.01,-0.07,0.16,179,30
4048,10.9,8.8,-9.8,-0.111,0.095,-1.050,-2.6,-3.1,0.0,-0.0142,-0.0141,-0.0220,843,870,828,965,0.01,0.01,-0.45,0.15,0.3805,1,1,0,0.01,0.00,-0.67,-0.13,0.01,-0.07,0.16,179,30
4058,8.7,8.5,-13.7,-0.011,0.112,-1.062,-2.7,-3.3,0.0,-0.0126,-0.0088,-0.0218,841,875,826,957,0.02,0.01,-0.45,0.16,0.3793,1,1,0,0.01,0.00,-0.68,-0.13,0.01,-0.07,0.16,179,30
4068,-1.8,2.3,18.2,0.078,0.113,-1.189,-2.8,-3.3,0.0,-0.0016,-0.0077,-0.0308,826,920,812,947,0.02,0.01,-0.45,0.16,0.3801,1,1,0,0.01,0.00,-0.67,-0.13,0.01,-0.07,0.16,179,30
4078,-4.3,-2.1,-11.1,0.116,0.025,-1.193,-2.7,-3.2,0.0,0.0008,0.0002,-0.0221,845,930,819,900,0.01,0.01,-0.45,0.16,0.3787,1,1,0,0.01,0.00,-0.67,-0.13,0.01,-0.07,0.16,179,30
4088,-6.5,-7.8,12.8,0.025,-0.057,-1.213,-2.5,-3.2,0.0,0.0033,0.0025,-0.0297,833,959,797,905,0.01,0.01,-0.44,0.16,0.3788,1,1,0,0.01,0.00,-0.67,-0.13,0.01,-0.07,0.17,179,30
4099,-6.7,-9.9,-0.2,-0.098,-0.129,-1.029,-2.4,-3.1,0.0,0.0018,0.0142,-0.0255,846,950,800,889,0.01,0.01,-0.45,0.16,0.3776,1,1,0,0.01,0.00,-0.67,-0.13,0.01,-0.07,0.17,179,30
4109,-4.5,-1.6,-13.8,-0.123,-0.142,-1.033,-2.4,-3.0,0.0,0.0013,-0.0003,-0.0225,837,929,820,906,0.01,0.01,-0.44,0.16,0.3785,1,1,0,0.01,0.00,-0.67,-0.13,0.01,-0.07,0.17,179,30
4119,-5.2,-5.7,11.8,-0.093,-0.008,-0.944,-2.2,-3.0,0.0,0.0023,0.0005,-0.0296,823,943,812,915,0.01,0.01,-0.44,0.17,0.3786,1,1,0,0.01,0.00,-0.67,-0.13,0.01,-0.07,0.17,179,30
4129,-2.6,-17.4,-19.0,-0.017,0.004,-0.864,-2.1,-2.9,0.0,-0.0025,0.0151,-0.0200,869,935,802,888,0.01,0.01,-0.44,0.17,0.3786,1,1,0,0.01,0.00,-0.67,-0.13,0.01,-0.07,0.17,179,30
4139,-2.5,-19.4,15.7,-0.038,0.035,-1.003,-2.1,-2.8,0.0,-0.0002,0.0145,-0.0313,858,954,772,914,0.01,0.00,-0.44,0.17,0.3791,1,1,0,0.01,0.00,-0.68,-0.12,0.01,-0.07,0.17,179,30
4149,-2.8,-25.2,12.2,0.054,-0.034,-1.007,-2.1,-2.8,0.0,-0.0029,0.0249,-0.0287,875,973,770,890,0.01,0.00,-0.44,0.17,0.3806,1,1,0,0.01,0.00,-0.67,-0.12,0.01,-0.07,0.17,179,30
4159,0.0,-25.4,3.5,0.006,-0.083,-0.894,-2.3,-2.8,0.0,-0.0029,0.0205,-0.0281,873,962,771,896,0.01,0.00,-0.44,0.17,0.3799,1,1,0,0.01,0.00,-0.67,-0.12,0.01,-0.07,0.17,179,30
4169,4.4,-31.9,32.5,0.047,-0.024,-0.981,-2.5,-2.7,0.0,-0.0077,0.0271,-0.0367,875,984,744,915,0.01,0.00,-0.44,0.17,0.3820,1,1,0,0.01,0.00,-0.67,-0.11,0.01,-0.07,0.17,179,30
4179,3.4,-21.4,-11.3,0.056,-0.147,-0.925,-2.8,-2.7,0.0,-0.0068,0.0184,-0.0238,885,949,782,900,0.02,0.00,-0.44,0.17,0.3818,1,1,0,0.01,0.00,-0.67,-0.11,0.01,-0.07,0.18,179,30
4189,11.3,-8.9,12.0,-0.078,-0.107,-0.938,-3.1,-2.7,0.0,-0.0152,0.0041,-0.0313,851,931,777,949,0.02,0.00,-0.44,0.18,0.3807,1,1,0,0.01,0.00,-0.68,-0.11,0.01,-0.07,0.18,178,30
4200,16.7,-11.0,0.9,0.019,-0.008,-0.936,-3.5,-2.8,0.0,-0.0186,0.0052,-0.0274,871,904,780,954,0.02,0.00,-0.44,0.18,0.3808,1,1,0,0.01,0.00,-0.67,-0.11,0.01,-0.07,0.19,178,30
4210,15.7,-12.0,-19.8,0.080,-0.035,-0.971,-3.9,-2.9,0.0,-0.0204,0.0070,-0.0219,964,966,868,1040,0.02,0.01,-0.44,0.18,0.4243,1,1,0,0.01,0.00,-0.68,-0.11,0.01,-0.07,0.19,178,30
4220,13.2,-19.1,23.9,0.089,0.072,-0.954,-4.4,-3.0,0.0,-0.0245,0.0087,-0.0344,950,977,838,1067,0.02,0.00,-0.44,0.18,0.4234,1,1,0,0.01,0.00,-0.68,-0.10,0.01,-0.07,0.19,178,30
4230,1.0,-34.0,-11.1,0.240,0.043,-0.987,-4.5,-3.1,0.0,-0.0063,0.0289,-0.0244,969,1019,845,973,0.02,0.01,-0.44,0.18,0.4201,1,1,0,0.01,0.00,-0.67,-0.10,0.01,-0.07,0.19,179,30
4240,-1.2,-20.7,16.6,0.130,-0.034,-1.020,-4.7,-3.1,0.0,-0.0045,0.0164,-0.0339,919,1028,837,996,0.02,0.01,-0.43,0.18,0.4167,1,1,0,0.01,0.00,-0.67,-0.10,0.01,-0.07,0.19,178,30
4250,4.9,-1.7,5.8,-0.053,-0.145,-1.037,-4.8,-3.2,0.0,-0.0111,-0.0020,-0.0297,909,977,862,1017,0.02,0.01,-0.44,0.19,0.4145,1,1,0,0.01,0.00,-0.67,-0.10,0.01,-0.07,0.19,178,30
4260,-3.5,14.0,-25.6,-0.049,-0.254,-1.059,-5.0,-3.6,0.0,-0.0023,-0.0198,-0.0208,875,934,909,1020,0.02,0.01,-0.44,0.19,0.4111,1,1,0,0.01,0.00,-0.68,-0.10,0.01,-0.07,0.19,177,30
4270,-4.4,16.5,22.7,-0.069,0.047,-1.137,-5.0,-3.7,0.0,0.0000,-0.0186,-0.0346,833,964,903,1034,0.02,0.01,-0.43,0.19,0.4104,1,1,0,0.01,0.00,-0.68,-0.10,0.01,-0.07,0.19,177,30
4280,-11.0,5.6,-12.7,0.124,0.072,-1.127,-4.9,-3.9,0.0,0.0053,-0.0117,-0.0245,847,967,920,975,0.02,0.01,-0.44,0.19,0.4072,1,1,0,0.01,0.00,-0.67,-0.10,0.01,-0.07,0.19,177,30
4290,2.5,-1.4,16.8,-0.016,0.148,-1.047,-4.6,-4.0,0.0,-0.0019,-0.0035,-0.0349,847,991,867,989,0.02,0.01,-0.43,0.19,0.4052,1,1,0,0.01,0.00,-0.68,-0.09,0.01,-0.07,0.20,177,30
4301,-2.2,13.6,9.3,-0.136,-0.101,-1.019,-4.5,-4.1,0.0,-0.0031,-0.0201,-0.0313,831,935,891,1020,0.02,0.01,-0.43,0.20,0.4029,3,1,0,0.01,0.00,0.00,0.00,0.00,0.00,0.20,177,63
4311,4.4,16.9,-22.6,-0.051,-0.171,-1.049,-6.2,-9.2,0.0,-0.0115,-0.0283,-0.0223,826,875,923,1051,0.02,0.01,-0.43,0.20,0.4027,3,1,0,0.00,-0.01,-0.11,0.04,0.00,0.00,0.20,177,63
4321,13.7,9.2,20.2,-0.038,0.215,-1.089,-7.9,-7.2,0.0,-0.0214,-0.0206,-0.0350,834,897,860,1060,0.02,0.01,-0.43,0.20,0.3994,3,1,0,0.00,0.00,-0.06,0.09,0.00,0.00,0.20,177,63
4331,4.0,-9.2,-18.5,0.289,0.271,-1.071,-9.1,-5.3,0.0,-0.0140,0.0017,-0.0233,882,890,855,1013,0.02,0.01,-0.43,0.20,0.3980,3,1,0,0.00,0.00,-0.01,0.12,0.00,0.00,0.20,177,63
4341,-4.8,-27.1,5.6,0.072,0.206,-0.944,-10.2,-3.0,0.0,-0.0085,0.0152,-0.0321,881,967,809,969,0.02,0.01,-0.43,0.20,0.3962,3,1,0,-0.01,0.00,0.03,0.15,0.00,0.00,0.21,177,63
4351,-9.7,-17.6,11.0,-0.037,-0.120,-1.044,-9.0,-1.6,0.0,-0.0001,0.0138,-0.0324,903,1006,795,921,0.02,0.01,-0.43,0.21,0.3960,3,1,0,0.00,0.00,0.06,0.13,0.00,0.00,0.21,177,63
4361,-12.8,4.2,-20.3,-0.041,-0.330,-0.976,-7.9,-2.2,0.0,0.0040,-0.0087,-0.0234,841,947,880,954,0.02,0.01,-0.43,0.21,0.3957,3,1,0,0.00,0.00,0.05,0.10,0.00,0.00,0.21,176,63
4371,1.1,0.4,26.8,-0.149,-0.041,-0.934,-6.6,-2.7,0.0,-0.0081,-0.0048,-0.0375,832,963,845,989,0.02,0.01,-0.43,0.21,0.3965,3,1,0,0.00,0.00,0.03,0.08,0.00,0.00,0.21,176,63
4381,-6.1,-9.9,-9.0,0.150,0.073,-1.026,-6.7,-2.5,0.0,-0.0013,0.0052,-0.0267,873,942,841,964,0.02,0.01,-0.43,0.21,0.3954,3,1,0,0.00,0.00,0.04,0.08,0.00,0.00,0.21,176,63
4391,-16.0,-15.7,9.5,0.108,0.047,-1.079,-7.6,-2.6,0.0,0.0074,0.0104,-0.0332,845,979,826,952,0.02,0.01,-0.43,0.22,0.3930,3,1,0,0.00,0.00,0.03,0.11,0.00,0.00,0.22,176,63
4402,-9.2,-14.5,19.6,-0.035,-0.067,-1.055,-7.3,-2.0,0.0,0.0011,0.0103,-0.0356,861,992,808,934,0.02,0.01,-0.43,0.22,0.3921,3,1,0,0.00,0.00,0.04,0.10,0.00,0.00,0.22,176,63
4412,-3.3,3.1,-17.2,-0.051,-0.197,-1.133,-6.3,-1.5,0.0,-0.0005,0.0005,-0.0256,857,961,842,935,0.01,0.01,-0.43,0.22,0.3922,3,1,0,0.00,0.00,0.05,0.08,0.00,0.00,0.22,176,63
4422,6.5,18.6,21.9,-0.039,-0.065,-1.179,-6.3,-1.9,0.0,-0.0138,-0.0229,-0.0369,901,1008,924,1102,0.01,0.01,-0.43,0.22,0.4372,3,1,0,0.00,0.00,0.04,0.09,0.00,0.00,0.23,176,63
4432,11.6,9.4,-18.0,-0.001,0.113,-0.965,-6.3,-2.3,0.0,-0.0189,-0.0141,-0.0246,942,957,932,1100,0.01,0.01,-0.43,0.23,0.4365,3,1,0,0.00,0.00,0.03,0.08,0.00,0.00,0.23,175,63
4442,-1.6,-0.6,-4.8,0.128,0.112,-1.144,-6.5,-3.4,0.0,-0.0091,-0.0114,-0.0302,909,980,922,1086,0.01,0.01,-0.43,0.23,0.4320,3,1,0,0.00,0.00,0.01,0.09,0.00,0.00,0.23,174,63
4452,-8.6,-9.1,16.8,0.151,0.094,-1.190,-6.7,-3.5,0.0,0.0010,0.0032,-0.0348,916,1031,899,1035,0.01,0.01,-0.43,0.23,0.4298,3,1,0,0.00,0.00,0.00,0.09,0.00,0.00,0.23,174,63
4462,-1.9,-6.3,-15.0,0.065,0.008,-1.049,-6.6,-3.0,0.0,-0.0056,0.0010,-0.0262,923,1010,894,1004,0.01,0.01,-0.43,0.24,0.4235,3,1,0,0.00,0.00,0.01,0.09,0.00,0.00,0.24,174,63
4472,-10.6,5.3,31.0,-0.124,-0.252,-1.152,-5.8,-2.3,0.0,0.0037,-0.0081,-0.0403,872,1033,882,1029,0.01,0.01,-0.43,0.24,0.4213,3,1,0,0.00,0.00,0.03,0.07,0.00,0.00,0.24,174,63
4482,-1.8,20.8,-8.6,-0.151,-0.249,-1.096,-5.7,-2.5,0.0,-0.0048,-0.0257,-0.0279,858,946,940,1054,0.01,0.01,-0.43,0.24,0.4190,3,1,0,0.00,0.00,0.02,0.07,0.00,0.00,0.24,174,63
4492,4.7,17.3,0.7,0.003,-0.001,-1.068,-5.0,-4.2,0.0,-0.0096,-0.0303,-0.0325,829,923,927,1083,0.01,0.01,-0.42,0.24,0.4142,3,1,0,0.00,0.00,0.00,0.06,0.00,0.00,0.25,174,63
4502,-1.3,-6.3,25.4,0.162,0.293,-1.199,-4.9,-4.7,0.0,-0.0049,-0.0020,-0.0382,862,978,872,1035,0.01,0.01,-0.43,0.25,0.4122,3,1,0,0.00,0.00,-0.01,0.06,0.00,0.00,0.26,175,63
4512,-5.5,-14.2,-25.1,0.242,0.118,-1.158,-4.8,-5.5,0.0,-0.0001,0.0064,-0.0237,906,985,853,966,0.01,0.01,-0.43,0.25,0.4073,3,1,0,0.00,0.00,-0.03,0.06,0.00,0.00,0.25,175,63
4523,-1.2,14.8,12.4,-0.073,-0.189,-1.013,-4.8,-4.4,0.0,-0.0023,-0.0151,-0.0363,841,977,874,1020,0.01,0.01,-0.42,0.26,0.4077,3,1,0,0.00,0.00,0.00,0.06,0.00,0.00,0.25,175,63
4533,1.2,14.7,-16.6,-0.137,-0.158,-0.875,-6.0,-4.4,0.0,-0.0082,-0.0215,-0.0260,862,915,896,1027,0.01,0.01,-0.43,0.26,0.4060,3,1,0,0.00,0.00,0.00,0.09,0.00,0.00,0.26,175,63
4543,-4.9,11.7,-7.1,0.065,0.032,-1.046,-5.6,-4.9,0.0,-0.0017,-0.0191,-0.0296,845,943,898,1026,0.01,0.01,-0.42,0.26,0.4076,3,1,0,0.00,0.00,-0.01,0.08,0.00,0.00,0.27,175,63
4553,-6.2,-13.7,34.6,0.155,0.175,-1.204,-5.4,-4.7,0.0,-0.0001,0.0067,-0.0418,852,1002,845,998,0.01,0.01,-0.42,0.27,0.4058,3,1,0,0.00,0.00,-0.01,0.09,0.00,0.00,0.27,174,63
4563,2.4,-18.5,-12.0,0.102,0.047,-0.961,-5.4,-4.1,0.0,-0.0054,0.0092,-0.0283,883,980,845,962,0.01,0.01,-0.42,0.27,0.4020,3,1,0,0.00,0.00,0.00,0.09,0.00,0.00,0.28,174,63
4573,-1.9,6.4,21.4,-0.237,-0.168,-1.157,-6.2,-3.1,0.0,-0.0052,-0.0119,-0.0387,844,981,829,1012,0.01,0.01,-0.42,0.28,0.4014,3,1,0,0.00,0.00,0.02,0.10,0.00,0.00,0.28,174,63
4583,-4.9,3.9,-13.5,-0.176,-0.249,-1.066,-6.8,-2.3,0.0,-0.0062,-0.0065,-0.0269,872,939,863,999,0.01,0.01,-0.42,0.28,0.4024,3,1,0,0.00,0.00,0.04,0.11,0.00,0.00,0.28,173,63
4593,3.1,7.6,-18.7,0.086,-0.057,-1.081,-6.6,-2.6,0.0,-0.0107,-0.0126,-0.0269,846,911,877,1028,0.01,0.01,-0.42,0.28,0.4011,3,1,0,0.00,0.00,0.04,0.11,0.00,0.00,0.28,173,63
4603,0.6,-9.1,26.4,0.225,0.224,-1.126,-5.8,-2.8,0.0,-0.0113,-0.0010,-0.0388,853,943,835,1024,0.01,0.01,-0.42,0.29,0.4001,3,1,0,0.00,0.00,0.03,0.09,0.00,0.00,0.29,173,63
4614,-0.6,-32.3,-21.3,0.208,0.258,-0.941,-6.0,-3.0,0.0,-0.0063,0.0271,-0.0259,914,971,811,947,0.01,0.01,-0.42,0.29,0.3984,3,1,0,0.00,0.00,0.02,0.11,0.00,0.00,0.29,173,63
4624,-6.8,-8.1,21.1,-0.071,-0.093,-0.911,-6.9,-3.6,0.0,-0.0009,0.0022,-0.0392,862,996,796,973,0.01,0.01,-0.42,0.30,0.3963,3,1,0,0.00,0.00,0.00,0.13,0.00,0.00,0.30,173,63
4634,-14.9,9.3,-5.3,-0.110,-0.365,-0.964,-6.8,-3.5,0.0,0.0088,-0.0078,-0.0293,835,974,878,954,0.01,0.01,-0.42,0.30,0.3981,3,1,0,-0.01,0.00,0.01,0.13,0.00,0.00,0.30,173,63
4644,-6.1,13.0,-13.3,-0.084,-0.217,-0.867,-6.2,-4.0,0.0,-0.0009,-0.0194,-0.0291,832,961,876,974,0.01,0.01,-0.42,0.30,0.3985,3,1,0,0.00,0.00,0.00,0.11,0.00,0.00,0.31,173,63
4654,-5.0,4.5,32.3,0.088,0.052,-0.959,-5.5,-4.1,0.0,-0.0014,-0.0109,-0.0426,830,964,845,1012,0.01,0.01,-0.42,0.31,0.3995,3,1,0,0.00,0.00,0.01,0.10,0.00,-0.01,0.31,173,63
4664,-12.2,-17.8,-18.2,0.140,0.131,-0.952,-4.4,-4.7,0.0,0.0063,0.0103,-0.0274,867,973,852,948,0.01,0.01,-0.42,0.31,0.3980,3,1,0,0.00,0.00,0.00,0.08,0.00,-0.01,0.31,173,63
4674,-9.1,2.5,24.9,-0.093,-0.111,-0.991,-4.0,-4.8,0.0,0.0046,-0.0075,-0.0416,822,1001,832,984,0.01,0.01,-0.42,0.32,0.3979,3,1,0,0.00,0.00,0.00,0.08,0.00,-0.01,0.31,174,63
4684,-4.8,28.1,6.3,-0.119,-0.212,-1.009,-3.8,-5.1,0.0,0.0000,-0.0357,-0.0351,796,948,898,999,0.01,0.02,-0.42,0.32,0.3982,3,1,0,0.00,0.00,0.00,0.08,0.00,-0.01,0.32,174,63
4694,3.2,27.7,-19.1,-0.055,-0.105,-0.984,-3.2,-5.6,0.0,-0.0031,-0.0357,-0.0293,786,913,920,1026,0.01,0.02,-0.42,0.33,0.3987,3,1,0,0.00,0.00,0.00,0.06,0.00,-0.01,0.33,174,63
4705,8.0,18.7,28.4,-0.043,0.243,-1.081,-2.8,-5.1,0.0,-0.0118,-0.0262,-0.0423,807,905,856,1077,0.00,0.02,-0.41,0.33,0.3988,3,1,0,0.00,0.00,0.02,0.06,0.00,-0.01,0.33,174,63
4715,-8.7,-6.2,-22.2,0.218,0.209,-1.097,-2.3,-4.1,0.0,0.0012,-0.0087,-0.0262,838,912,889,1008,0.00,0.02,-0.42,0.34,0.3988,3,1,0,0.00,0.00,0.06,0.05,0.00,-0.01,0.33,174,63
4725,-7.1,-16.6,14.5,0.125,0.142,-0.955,-1.3,-4.4,0.0,0.0048,0.0099,-0.0388,816,989,848,979,0.00,0.02,-0.41,0.34,0.3970,3,1,0,0.00,0.00,0.05,0.03,0.00,-0.01,0.34,174,63
4735,-6.9,-7.0,14.2,0.030,-0.074,-1.112,-1.5,-4.7,0.0,0.0036,0.0003,-0.0378,843,985,843,971,0.00,0.02,-0.41,0.34,0.3984,3,1,0,0.00,0.00,0.05,0.03,0.00,-0.01,0.34,174,63
4745,-6.9,5.0,-18.6,-0.001,-0.273,-1.131,-2.0,-5.7,0.0,0.0042,-0.0128,-0.0291,827,950,878,985,0.00,0.02,-0.41,0.35,0.3981,3,1,0,0.00,0.00,0.03,0.04,0.00,-0.01,0.35,175,63
4755,1.6,12.8,31.7,-0.116,-0.077,-1.049,-2.1,-5.7,0.0,-0.0047,-0.0211,-0.0441,802,964,854,1018,0.00,0.02,-0.41,0.35,0.3977,3,1,0,0.00,0.00,0.03,0.04,0.00,-0.01,0.36,175,63
4765,-3.5,-0.3,-13.2,0.145,-0.006,-1.175,-3.2,-5.3,0.0,-0.0037,-0.0112,-0.0295,843,930,874,1003,0.00,0.02,-0.41,0.36,0.3993,3,1,0,0.00,0.00,0.05,0.07,0.00,-0.01,0.36,175,63
4775,-7.5,-17.4,13.7,0.157,0.133,-0.981,-3.1,-5.6,0.0,0.0033,0.0077,-0.0396,819,968,838,1000,0.00,0.02,-0.41,0.36,0.3961,3,1,0,0.00,0.00,0.05,0.07,0.00,-0.01,0.36,175,63
4785,-4.1,-8.2,17.5,-0.031,0.064,-1.104,-3.4,-6.1,0.0,-0.0001,-0.0003,-0.0399,868,1000,806,963,0.00,0.02,-0.41,0.37,0.3976,3,1,0,0.00,0.00,0.02,0.07,0.00,-0.01,0.37,175,63
4795,-5.6,8.6,-22.5,-0.066,-0.291,-1.137,-3.8,-6.8,0.0,-0.0011,-0.0143,-0.0292,867,949,832,992,0.00,0.02,-0.41,0.37,0.3980,3,1,0,0.00,0.00,0.01,0.08,0.00,-0.01,0.37,176,63
4806,2.1,11.2,28.3,-0.140,-0.127,-0.871,-3.9,-7.1,0.0,-0.0071,-0.0208,-0.0438,796,957,854,1020,0.01,0.02,-0.41,0.38,0.3964,3,1,0,0.00,0.00,0.00,0.08,0.00,-0.01,0.37,176,63
4816,0.0,5.5,-16.6,0.102,-0.068,-1.010,-4.5,-6.7,0.0,-0.0056,-0.0125,-0.0292,847,928,863,997,0.01,0.02,-0.41,0.38,0.3974,3,1,0,0.00,0.00,0.01,0.09,0.00,-0.01,0.38,176,63
4826,-1.6,1.6,1.8,0.269,0.051,-0.853,-4.7,-6.2,0.0,-0.0056,-0.0128,-0.0366,820,909,848,1046,0.01,0.02,-0.41,0.38,0.3958,3,1,0,0.00,0.00,0.03,0.09,0.00,-0.01,0.38,176,63
4836,-3.4,-20.0,21.5,0.156,0.223,-0.805,-5.4,-5.6,0.0,-0.0029,0.0119,-0.0418,847,965,816,988,0.01,0.02,-0.41,0.39,0.3949,3,1,0,0.00,0.00,0.04,0.11,0.00,-0.01,0.38,176,63
4846,-4.8,-21.0,-19.1,0.065,0.028,-0.929,-5.2,-5.8,0.0,-0.0056,0.0181,-0.0305,900,986,795,941,0.01,0.02,-0.41,0.39,0.3956,3,1,0,0.00,0.00,0.03,0.11,0.00,-0.01,0.39,176,63
4856,-13.3,9.5,24.7,-0.136,-0.273,-0.954,-5.1,-6.7,0.0,0.0072,-0.0187,-0.0434,809,986,838,992,0.01,0.02,-0.41,0.40,0.3960,3,1,0,0.00,0.00,0.00,0.10,0.00,-0.01,0.39,176,63
4866,-10.2,6.7,-6.9,-0.044,-0.237,-0.804,-4.8,-7.6,0.0,0.0095,-0.0149,-0.0320,805,962,893,964,0.01,0.02,-0.41,0.40,0.3959,3,1,0,0.00,0.00,0.00,0.10,0.00,-0.01,0.40,176,63
4876,-6.9,11.0,0.8,0.095,-0.107,-0.871,-5.0,-8.3,0.0,0.0009,-0.0220,-0.0366,792,936,880,1021,0.01,0.02,-0.41,0.41,0.3965,3,1,0,0.00,0.00,-0.02,0.10,0.00,-0.01,0.41,176,63
4886,-6.6,-7.1,30.3,0.142,0.169,-0.930,-4.2,-7.5,0.0,0.0014,-0.0028,-0.0450,805,960,845,1012,0.00,0.02,-0.41,0.41,0.3956,3,1,0,0.00,0.00,0.00,0.08,0.00,-0.01,0.41,176,63
4896,-1.6,-19.3,-14.6,0.031,0.160,-0.972,-3.9,-6.5,0.0,-0.0049,0.0115,-0.0320,870,973,819,960,0.00,0.02,-0.41,0.42,0.3956,3,1,0,0.00,0.00,0.01,0.08,0.00,-0.01,0.41,176,63
4906,-4.6,8.4,21.3,-0.137,-0.108,-1.034,-4.2,-6.7,0.0,-0.0005,-0.0177,-0.0430,808,968,826,1011,0.00,0.02,-0.41,0.42,0.3945,3,1,0,0.00,0.00,0.01,0.09,0.00,-0.01,0.41,176,63
4917,-5.7,17.4,-4.7,-0.095,-0.154,-0.835,-4.4,-7.2,0.0,0.0002,-0.0273,-0.0346,808,946,873,987,0.00,0.02,-0.41,0.43,0.3946,3,1,0,0.00,0.00,0.00,0.10,0.00,-0.01,0.41,176,63
4927,3.1,16.6,-13.3,0.001,-0.044,-0.890,-5.5,-7.6,0.0,-0.0091,-0.0264,-0.0330,804,914,873,1024,0.00,0.02,-0.41,0.43,0.3947,3,1,0,-0.01,0.00,0.00,0.14,0.00,-0.01,0.42,176,63
4937,5.7,12.3,24.2,0.131,0.138,-1.016,-6.0,-7.6,0.0,-0.0128,-0.0226,-0.0437,807,920,842,1051,0.00,0.02,-0.41,0.43,0.3955,3,1,0,-0.01,0.00,0.00,0.14,0.00,-0.01,0.43,176,63
4947,-0.2,-15.0,-20.2,0.158,0.257,-0.973,-6.2,-7.6,0.0,-0.0087,-0.0016,-0.0297,856,929,842,991,0.00,0.02,-0.41,0.44,0.3951,3,1,0,-0.01,0.00,0.01,0.14,0.00,-0.01,0.43,177,63
4957,1.5,-18.5,13.0,0.041,0.183,-1.008,-5.9,-6.5,0.0,-0.0086,0.0094,-0.0408,847,983,802,986,0.00,0.02,-0.40,0.44,0.3951,3,1,0,-0.01,0.00,0.02,0.14,0.00,-0.01,0.43,177,63
4967,-10.2,-1.0,7.6,-0.061,-0.113,-0.853,-5.8,-6.0,0.0,0.0023,-0.0043,-0.0377,840,978,833,971,0.00,0.02,-0.41,0.45,0.3956,3,1,0,-0.01,0.00,0.01,0.13,0.00,-0.01,0.44,177,63
4977,-11.3,12.0,-18.1,-0.071,-0.277,-0.879,-5.2,-6.4,0.0,0.0056,-0.0201,-0.0316,805,951,884,983,0.00,0.02,-0.41,0.45,0.3959,3,1,0,-0.01,0.00,0.00,0.12,0.00,-0.01,0.44,177,63
4987,-1.0,22.9,27.7,-0.123,-0.058,-1.011,-5.0,-6.9,0.0,-0.0049,-0.0326,-0.0450,789,958,871,1039,0.00,0.02,-0.40,0.46,0.4003,3,1,0,-0.01,0.00,-0.01,0.13,0.00,-0.01,0.45,178,63
4997,-2.9,5.3,-16.0,0.053,0.059,-0.948,-5.3,-7.9,0.0,-0.0034,-0.0159,-0.0316,830,929,889,1017,0.00,0.02,-0.41,0.46,0.4014,3,1,0,-0.01,0.00,-0.02,0.13,0.00,-0.01,0.46,177,63
5007,-5.7,-9.5,9.6,0.011,0.186,-1.015,-4.8,-7.7,0.0,0.0033,-0.0027,-0.0405,804,986,863,995,0.00,0.02,-0.40,0.46,0.3992,3,1,0,-0.01,0.00,-0.01,0.12,0.00,-0.02,0.46,177,63
5017,-1.9,-6.6,18.1,-0.028,0.101,-1.081,-4.7,-7.1,0.0,-0.0038,-0.0031,-0.0419,843,1012,831,965,0.00,0.02,-0.41,0.47,0.3995,3,1,0,-0.01,0.00,-0.01,0.12,0.00,-0.02,0.47,177,63
5028,-0.5,10.9,-25.7,0.008,-0.174,-1.060,-4.6,-7.9,0.0,-0.0040,-0.0186,-0.0302,829,936,875,1004,0.00,0.02,-0.41,0.47,0.3986,3,1,0,-0.01,0.00,-0.02,0.12,0.00,-0.02,0.47,177,63
5038,8.2,15.2,20.7,-0.066,0.004,-0.882,-4.8,-8.6,0.0,-0.0142,-0.0265,-0.0430,782,921,872,1062,0.00,0.02,-0.40,0.48,0.3977,3,1,0,-0.01,0.00,-0.03,0.13,0.00,-0.02,0.48,178,63
5048,9.7,6.7,-20.2,0.094,0.079,-0.949,-5.1,-8.9,0.0,-0.0169,-0.0202,-0.0300,838,884,877,1053,0.00,0.02,-0.41,0.48,0.3996,3,1,0,-0.01,0.00,-0.04,0.14,0.00,-0.02,0.48,178,63
5058,-3.9,1.7,-8.0,0.190,0.146,-1.031,-4.7,-9.6,0.0,-0.0028,-0.0180,-0.0349,799,906,885,1058,0.00,0.02,-0.40,0.49,0.3992,3,1,0,-0.01,0.00,-0.05,0.14,0.00,-0.02,0.49,179,63
5068,-6.8,-27.0,15.5,0.130,0.211,-1.017,-4.4,-8.4,0.0,0.0013,0.0160,-0.0409,846,999,829,973,0.00,0.02,-0.41,0.49,0.3990,3,1,0,-0.01,0.00,-0.03,0.14,0.00,-0.02,0.49,179,63
5078,-3.2,-19.8,-24.5,0.130,-0.063,-0.985,-4.4,-7.5,0.0,-0.0023,0.0101,-0.0291,878,986,834,948,0.00,0.02,-0.41,0.50,0.3988,3,1,0,-0.01,0.00,-0.01,0.14,0.00,-0.02,0.50,179,63
5088,-6.1,-0.5,20.4,-0.093,-0.197,-1.037,-4.5,-7.4,0.0,0.0004,-0.0093,-0.0428,816,980,845,1010,0.00,0.02,-0.41,0.50,0.3997,3,1,0,-0.01,0.00,-0.01,0.14,0.00,-0.02,0.50,179,63
5098,6.3,6.8,-13.1,-0.086,-0.128,-0.920,-4.1,-8.3,0.0,-0.0115,-0.0179,-0.0320,823,906,891,1041,0.00,0.02,-0.41,0.51,0.4008,3,1,0,-0.01,0.00,-0.03,0.13,0.00,-0.02,0.50,179,63
5108,6.2,9.1,-9.2,0.070,0.000,-0.947,-4.2,-9.5,0.0,-0.0123,-0.0252,-0.0341,802,885,893,1080,0.00,0.02,-0.41,0.51,0.4006,3,1,0,-0.01,0.00,-0.06,0.14,0.00,-0.02,0.50,179,63
5118,-7.4,-10.2,18.2,0.106,0.081,-1.135,-4.4,-9.7,0.0,0.0019,-0.0021,-0.0414,819,966,863,1022,0.00,0.02,-0.41,0.51,0.4021,3,1,0,-0.01,-0.01,-0.07,0.15,0.00,-0.02,0.51,180,63
5128,6.2,-18.5,-25.2,0.085,0.133,-1.062,-3.8,-8.8,0.0,-0.0063,0.0086,-0.0286,883,983,842,960,0.00,0.02,-0.41,0.52,0.4018,3,1,0,-0.01,0.00,-0.06,0.14,0.00,-0.02,0.52,180,63
5139,2.5,0.6,17.9,-0.070,-0.122,-1.095,-4.2,-8.4,0.0,-0.0078,-0.0118,-0.0416,846,979,820,1019,0.00,0.02,-0.41,0.52,0.4013,3,1,0,-0.01,0.00,-0.06,0.14,0.00,-0.02,0.52,180,63
5149,8.1,9.5,-16.0,-0.156,-0.106,-1.115,-4.0,-7.9,0.0,-0.0123,-0.0219,-0.0300,840,912,881,1035,0.00,0.02,-0.41,0.53,0.4017,3,1,0,-0.01,0.00,-0.04,0.14,0.00,-0.02,0.52,180,63
5159,11.1,5.5,-21.5,0.001,0.004,-0.984,-4.1,-8.7,0.0,-0.0169,-0.0184,-0.0300,844,898,869,1055,0.00,0.02,-0.41,0.53,0.4015,3,1,0,-0.01,0.00,-0.06,0.14,0.00,-0.02,0.52,180,63
5169,4.0,-4.9,13.6,0.115,0.131,-1.059,-4.3,-8.7,0.0,-0.0095,-0.0065,-0.0395,851,939,839,1040,0.00,0.02,-0.41,0.54,0.4019,3,1,0,-0.01,-0.01,-0.07,0.15,0.00,-0.02,0.53,180,63
5179,-0.4,-25.8,-30.0,0.170,0.152,-1.021,-4.6,-8.9,0.0,-0.0057,0.0127,-0.0261,891,961,850,972,0.00,0.01,-0.41,0.54,0.4025,3,1,0,-0.01,-0.01,-0.08,0.16,0.00,-0.02,0.54,180,63
5189,-5.1,-20.2,19.1,-0.013,-0.034,-0.939,-4.4,-8.2,0.0,-0.0003,0.0093,-0.0414,867,1017,807,973,0.00,0.01,-0.41,0.54,0.4012,3,1,0,-0.01,-0.01,-0.07,0.15,0.00,-0.02,0.55,180,63
5199,-11.2,4.4,-6.8,-0.153,-0.264,-0.995,-4.0,-7.1,0.0,0.0062,-0.0130,-0.0325,839,975,875,978,0.00,0.01,-0.41,0.55,0.4017,3,1,0,-0.01,0.00,-0.05,0.15,0.00,-0.02,0.56,180,63
5209,-2.4,19.1,-22.2,-0.191,-0.215,-1.007,-3.8,-6.5,0.0,-0.0025,-0.0284,-0.0287,802,926,917,1021,0.00,0.01,-0.41,0.55,0.4015,3,1,0,-0.01,0.00,-0.03,0.14,0.00,-0.02,0.55,180,63
5219,3.9,19.4,20.5,-0.169,-0.041,-0.915,-3.3,-6.7,0.0,-0.0084,-0.0290,-0.0410,802,930,880,1054,0.00,0.01,-0.41,0.56,0.4014,3,1,0,-0.01,0.00,-0.04,0.13,0.00,-0.02,0.55,180,63
5229,4.0,2.7,-32.1,0.069,0.141,-1.075,-3.0,-6.8,0.0,-0.0082,-0.0128,-0.0249,863,925,882,1008,0.00,0.01,-0.41,0.56,0.4029,3,1,0,-0.01,0.00,-0.05,0.13,0.00,-0.02,0.55,180,63
5240,-0.3,-6.1,12.6,0.087,0.137,-0.959,-2.9,-6.7,0.0,-0.0036,-0.0033,-0.0387,832,972,853,1009,0.00,0.01,-0.41,0.57,0.4016,3,1,0,-0.01,0.00,-0.05,0.13,0.00,-0.03,0.56,179,63
5250,-1.2,-1.3,-4.5,0.027,-0.051,-0.920,-2.8,-5.9,0.0,-0.0025,-0.0073,-0.0324,853,961,864,992,0.00,0.01,-0.41,0.57,0.4020,3,1,0,-0.01,0.00,-0.03,0.13,0.00,-0.03,0.56,179,63
5260,1.4,12.9,-30.3,-0.016,-0.174,-1.014,-2.8,-5.2,0.0,-0.0053,-0.0209,-0.0254,827,925,906,1013,0.00,0.01,-0.41,0.57,0.4020,3,1,0,-0.01,0.00,-0.01,0.13,0.00,-0.03,0.57,179,63
5270,2.9,7.7,17.9,-0.071,-0.001,-0.818,-3.2,-5.2,0.0,-0.0073,-0.0157,-0.0394,810,916,883,1062,0.00,0.01,-0.41,0.58,0.4021,3,1,0,-0.01,0.00,-0.01,0.14,0.00,-0.03,0.57,179,63
5280,-1.5,2.3,-32.2,0.117,-0.029,-0.825,-2.9,-5.4,0.0,-0.0024,-0.0105,-0.0240,860,916,885,1004,0.00,0.01,-0.42,0.58,0.4013,3,1,0,-0.01,0.00,-0.02,0.13,0.00,-0.03,0.58,178,63
5290,-13.3,-0.9,9.5,0.169,-0.002,-1.078,-3.2,-5.8,0.0,0.0078,-0.0110,-0.0370,804,948,890,1031,0.00,0.01,-0.41,0.59,0.4023,3,1,0,-0.01,0.00,-0.03,0.15,0.00,-0.03,0.59,178,63
5300,-13.7,-16.8,7.9,-0.033,-0.055,-0.970,-3.4,-5.2,0.0,0.0092,0.0088,-0.0355,837,1003,874,959,0.00,0.01,-0.42,0.59,0.4025,3,1,0,-0.01,0.00,-0.02,0.15,0.00,-0.03,0.59,177,63
5310,-5.3,-0.7,-18.0,0.008,-0.156,-0.954,-3.3,-4.9,0.0,0.0025,-0.0061,-0.0285,840,987,886,963,0.00,0.01,-0.42,0.60,0.4027,3,1,0,-0.01,0.00,-0.01,0.15,0.00,-0.03,0.59,177,63
5320,-0.4,11.3,23.5,-0.085,-0.071,-1.173,-3.1,-4.7,0.0,-0.0038,-0.0190,-0.0402,812,959,875,1031,0.00,0.01,-0.42,0.60,0.4029,3,1,0,-0.01,0.00,-0.01,0.15,0.00,-0.03,0.60,177,63
5331,9.9,5.2,-30.6,0.009,-0.069,-0.997,-3.0,-4.3,0.0,-0.0159,-0.0159,-0.0231,870,897,879,1027,0.00,0.01,-0.42,0.61,0.4023,3,1,0,-0.01,0.00,0.00,0.14,0.00,-0.03,0.60,177,63
5341,7.5,12.4,0.6,0.125,0.055,-0.951,-2.7,-4.3,0.0,-0.0135,-0.0218,-0.0339,832,908,868,1060,0.00,0.01,-0.42,0.61,0.4019,3,1,0,-0.01,0.00,0.00,0.14,0.00,-0.03,0.60,177,63
5351,-3.0,-9.1,-3.5,0.172,0.197,-1.086,-2.3,-4.2,0.0,-0.0003,0.0021,-0.0311,840,925,889,1018,0.00,0.01,-0.42,0.61,0.4024,3,1,0,-0.01,0.00,0.01,0.13,0.00,-0.03,0.61,177,63
5361,0.7,-32.1,-22.8,0.173,0.177,-0.973,-2.2,-4.4,0.0,-0.0032,0.0242,-0.0255,900,998,841,936,0.00,0.01,-0.42,0.62,0.4027,3,1,0,-0.01,0.00,0.00,0.13,0.00,-0.03,0.62,177,63
5371,-5.7,-14.8,27.3,0.035,-0.018,-0.999,-2.1,-4.0,0.0,0.0025,0.0079,-0.0402,880,1032,808,952,0.00,0.01,-0.42,0.62,0.4022,3,1,0,-0.01,0.00,0.00,0.13,0.00,-0.03,0.62,177,63
5381,-10.6,0.9,-26.0,-0.004,-0.321,-0.895,-2.0,-4.2,0.0,0.0044,-0.0052,-0.0232,865,958,883,963,0.00,0.01,-0.42,0.63,0.4019,3,1,0,-0.01,0.00,0.00,0.12,0.00,-0.03,0.62,177,63
5391,-3.8,9.1,7.1,-0.056,-0.208,-0.784,-1.8,-4.3,0.0,0.0026,-0.0153,-0.0347,812,965,885,1000,0.00,0.01,-0.42,0.63,0.4010,3,1,0,-0.01,0.00,0.00,0.12,0.00,-0.03,0.63,177,63
5401,-2.5,5.0,8.4,0.033,-0.078,-0.890,-1.5,-3.9,0.0,0.0000,-0.0118,-0.0336,842,955,878,999,0.00,0.01,-0.42,0.64,0.4025,3,1,0,-0.01,0.00,0.01,0.11,0.00,-0.03,0.63,177,63
5411,-3.7,-12.9,-22.5,0.160,0.141,-1.032,-1.4,-4.4,0.0,0.0039,-0.0021,-0.0251,848,962,895,975,0.00,0.01,-0.42,0.64,0.4033,3,1,0,-0.01,0.00,0.01,0.11,0.00,-0.03,0.64,177,63
5421,1.0,-15.6,31.2,0.018,0.177,-0.953,-1.5,-4.1,0.0,-0.0037,0.0086,-0.0403,843,1016,843,967,0.00,0.01,-0.42,0.65,0.4019,3,1,0,-0.01,0.00,0.01,0.12,0.00,-0.03,0.65,176,63
5432,-1.0,1.9,-23.9,0.018,-0.172,-0.877,-2.2,-4.4,0.0,-0.0031,-0.0046,-0.0234,875,951,866,968,0.00,0.01,-0.43,0.65,0.4007,3,1,0,-0.01,0.00,0.00,0.13,0.00,-0.03,0.65,176,63
5442,3.9,15.7,-0.3,-0.022,-0.180,-1.006,-2.1,-4.9,0.0,-0.0072,-0.0235,-0.0308,811,917,890,1040,0.00,0.01,-0.43,0.65,0.4005,3,1,0,-0.01,0.00,0.00,0.13,0.00,-0.03,0.65,175,63
5452,8.4,-2.4,-0.4,-0.035,0.074,-0.960,-2.1,-5.2,0.0,-0.0117,-0.0056,-0.0298,844,902,880,1036,0.00,0.01,-0.43,0.66,0.4010,3,1,0,-0.01,0.00,0.00,0.13,0.00,-0.03,0.65,175,63
5462,6.5,-8.8,-34.4,0.157,0.109,-0.890,-1.4,-4.9,0.0,-0.0096,-0.0005,-0.0201,884,919,870,999,0.00,0.01,-0.43,0.66,0.4023,3,1,0,-0.01,0.00,0.00,0.11,0.00,-0.03,0.66,175,63
5472,-2.2,-17.7,17.6,0.182,0.158,-1.092,-1.1,-4.7,0.0,-0.0003,0.0087,-0.0349,855,965,851,1000,0.00,0.01,-0.43,0.67,0.4022,3,1,0,-0.01,0.00,0.00,0.11,0.00,-0.03,0.67,175,63
5482,-3.3,-33.8,-24.4,0.091,-0.002,-0.980,-1.1,-5.1,0.0,0.0003,0.0262,-0.0215,924,994,835,916,0.00,0.01,-0.43,0.67,0.4018,3,1,0,-0.01,0.00,-0.01,0.11,0.00,-0.04,0.67,175,63
5492,-6.5,-9.2,8.5,-0.008,-0.189,-0.979,-1.1,-5.1,0.0,0.0043,0.0012,-0.0322,874,1003,825,954,0.00,0.01,-0.43,0.68,0.4002,3,1,0,-0.01,0.00,-0.01,0.11,0.00,-0.04,0.68,175,63
5502,-12.6,1.4,3.9,-0.175,-0.259,-1.075,-1.2,-5.5,0.0,0.0084,-0.0082,-0.0291,835,968,887,970,0.00,0.01,-0.43,0.68,0.4009,3,1,0,-0.01,0.00,-0.02,0.11,0.00,-0.04,0.68,175,63
5512,-1.8,-9.3,-26.8,-0.114,-0.154,-0.936,-1.3,-6.1,0.0,-0.0006,0.0003,-0.0209,860,947,883,968,0.00,0.01,-0.43,0.69,0.4005,3,1,0,-0.01,0.00,-0.04,0.12,0.00,-0.04,0.69,175,63
5522,3.0,3.1,18.8,-0.045,-0.003,-0.921,-1.1,-6.4,0.0,-0.0053,-0.0125,-0.0342,848,972,851,986,0.00,0.01,-0.43,0.69,0.4003,3,1,0,-0.01,0.00,-0.05,0.12,0.00,-0.04,0.69,175,63
5533,4.9,-2.4,-31.3,0.072,0.074,-1.041,-0.6,-5.6,0.0,-0.0067,-0.0048,-0.0184,896,938,873,964,0.00,0.01,-0.44,0.70,0.4021,3,1,0,-0.01,0.00,-0.03,0.10,0.00,-0.04,0.69,175,63
5543,1.1,-8.7,3.7,0.043,0.086,-0.970,-0.4,-5.4,0.0,-0.0026,0.0003,-0.0295,860,956,853,988,-0.01,0.01,-0.43,0.70,0.4003,3,1,0,-0.01,0.00,-0.02,0.10,0.00,-0.04,0.69,175,63
5553,-7.3,-3.6,5.2,0.051,-0.055,-0.930,-0.5,-5.5,0.0,0.0045,-0.0023,-0.0282,855,971,871,963,-0.01,0.01,-0.44,0.70,0.4009,3,1,0,-0.01,0.00,-0.03,0.10,0.00,-0.04,0.69,175,63
5563,-6.8,6.8,-28.9,0.066,-0.144,-0.996,-0.4,-5.6,0.0,0.0053,-0.0154,-0.0191,841,933,908,978,-0.01,0.01,-0.44,0.71,0.4008,3,1,0,-0.01,0.00,-0.03,0.10,0.00,-0.04,0.70,175,63
5573,-4.3,3.3,14.6,-0.029,-0.055,-1.084,-0.7,-5.3,0.0,0.0013,-0.0146,-0.0316,823,941,889,1010,-0.01,0.01,-0.44,0.71,0.4010,3,1,0,-0.01,0.00,-0.02,0.11,0.00,-0.04,0.70,175,63
5583,-1.2,-6.4,-29.0,0.033,-0.063,-0.870,-1.0,-5.3,0.0,-0.0003,0.0002,-0.0177,890,948,880,951,-0.01,0.01,-0.44,0.72,0.4019,3,1,0,-0.01,0.00,-0.02,0.11,0.00,-0.04,0.71,175,63
5593,2.1,-0.9,-2.5,0.104,0.025,-1.093,-0.8,-5.9,0.0,-0.0041,-0.0079,-0.0263,858,952,870,988,-0.01,0.01,-0.44,0.72,0.4018,3,1,0,-0.01,0.00,-0.03,0.11,0.00,-0.04,0.72,175,63
5603,-8.3,-13.2,3.4,0.081,0.085,-1.197,0.0,-5.9,0.0,0.0061,0.0030,-0.0267,858,962,884,965,-0.01,0.01,-0.44,0.73,0.4019,3,1,0,-0.01,0.00,-0.03,0.09,0.00,-0.04,0.74,175,63
5613,-8.2,-26.8,-17.7,0.100,-0.010,-0.979,0.4,-5.8,0.0,0.0075,0.0181,-0.0212,884,993,863,915,-0.01,0.01,-0.44,0.73,0.4001,3,1,0,0.00,0.00,-0.03,0.08,0.00,-0.04,0.74,175,63
5623,-6.2,-3.1,27.5,0.014,-0.069,-1.094,0.4,-6.3,0.0,0.0050,0.0000,-0.0346,846,995,853,964,-0.01,0.01,-0.44,0.74,0.4004,3,1,0,0.00,0.00,-0.05,0.08,0.00,-0.04,0.73,175,63
5634,-8.7,-2.0,-19.6,-0.002,-0.159,-1.107,0.4,-6.9,0.0,0.0081,-0.0079,-0.0198,859,953,896,950,-0.01,0.01,-0.44,0.74,0.4005,3,1,0,0.00,0.00,-0.07,0.07,0.00,-0.04,0.74,175,63
5644,0.9,7.9,2.6,-0.103,-0.068,-0.914,0.7,-7.5,0.0,0.0020,-0.0137,-0.0281,829,950,885,983,0.00,0.01,-0.44,0.75,0.3990,3,1,0,0.00,-0.01,-0.08,0.07,0.00,-0.04,0.75,175,63
5654,6.2,18.0,0.3,-0.030,0.031,-0.970,0.6,-7.7,0.0,-0.0014,-0.0188,-0.0247,844,940,892,980,0.00,0.01,-0.45,0.75,0.4002,3,1,0,0.00,-0.01,-0.10,0.08,0.00,-0.04,0.75,175,63
5664,2.2,15.5,-34.9,0.141,0.097,-1.070,0.0,-9.0,0.0,-0.0032,-0.0276,-0.0148,841,878,931,1013,0.00,0.01,-0.45,0.76,0.4011,3,1,0,0.00,-0.01,-0.10,0.07,0.00,-0.04,0.75,175,63
5674,-5.7,-1.1,21.4,0.084,0.152,-0.974,0.1,-8.9,0.0,0.0038,-0.0126,-0.0313,824,933,889,1011,0.00,0.01,-0.45,0.76,0.4003,3,1,0,0.00,-0.01,-0.09,0.06,0.00,-0.04,0.76,175,63
5684,-3.5,-18.7,-17.8,0.154,0.074,-0.947,0.6,-8.0,0.0,0.0039,0.0086,-0.0189,890,977,871,923,0.00,0.01,-0.45,0.76,0.4009,3,1,0,0.00,-0.01,-0.08,0.06,0.00,-0.04,0.77,175,63
5694,-0.2,-1.0,-1.9,0.064,-0.085,-1.067,0.5,-7.8,0.0,-0.0002,-0.0098,-0.0244,847,954,879,971,0.00,0.01,-0.45,0.77,0.3996,3,1,0,0.00,-0.01,-0.08,0.06,0.00,-0.04,0.77,174,63
5704,1.6,-1.5,6.6,-0.007,-0.071,-1.186,0.6,-7.7,0.0,-0.0024,-0.0100,-0.0258,848,931,885,988,0.00,0.01,-0.45,0.77,0.3996,3,1,0,0.00,-0.01,-0.08,0.05,0.00,-0.04,0.79,174,63
5714,3.1,1.8,-31.8,-0.011,-0.056,-1.062,0.9,-7.4,0.0,-0.0033,-0.0123,-0.0147,871,925,899,960,0.00,0.01,-0.45,0.78,0.4002,3,1,0,0.00,-0.01,-0.08,0.04,0.00,-0.04,0.79,174,63
5724,9.7,2.6,15.7,-0.051,0.125,-1.116,0.5,-6.7,0.0,-0.0103,-0.0070,-0.0290,865,946,852,992,0.00,0.01,-0.45,0.78,0.4001,3,1,0,0.00,-0.01,-0.07,0.05,0.00,-0.04,0.79,174,63
5734,-2.8,-5.8,-19.3,0.050,0.027,-1.069,0.6,-6.5,0.0,0.0023,-0.0037,-0.0177,890,934,879,955,0.00,0.01,-0.45,0.79,0.4004,3,1,0,0.00,-0.01,-0.06,0.05,0.00,-0.04,0.80,174,63
5745,-9.9,-10.3,-3.8,-0.059,-0.062,-0.957,0.9,-5.8,0.0,0.0096,0.0024,-0.0231,862,975,870,936,0.00,0.01,-0.45,0.79,0.3985,3,1,0,0.00,0.00,-0.05,0.04,0.00,-0.04,0.81,174,63
5755,-5.8,-2.9,25.1,-0.074,-0.079,-0.992,1.4,-5.4,0.0,0.0073,-0.0028,-0.0306,843,991,869,946,0.00,0.01,-0.45,0.80,0.3991,3,1,0,0.00,0.00,-0.04,0.02,0.00,-0.04,0.81,174,63
5765,0.7,3.6,-22.8,0.008,-0.129,-1.101,1.2,-5.7,0.0,0.0014,-0.0106,-0.0170,858,933,900,957,0.00,0.01,-0.45,0.80,0.3991,3,1,0,0.00,0.00,-0.05,0.03,0.00,-0.04,0.82,174,63
5775,5.4,11.1,20.9,-0.103,-0.028,-0.919,1.1,-5.9,0.0,-0.0036,-0.0195,-0.0302,814,939,886,996,0.00,0.01,-0.45,0.81,0.3973,3,1,0,0.00,0.00,-0.05,0.03,0.00,-0.04,0.82,174,63
5785,15.6,15.1,-12.6,-0.072,0.138,-0.912,1.2,-5.5,0.0,-0.0156,-0.0238,-0.0192,861,899,893,996,0.00,0.01,-0.45,0.81,0.3992,3,1,0,0.00,0.00,-0.05,0.02,0.00,-0.04,0.82,174,63
5795,10.0,24.2,-23.0,0.032,0.050,-1.056,0.9,-5.7,0.0,-0.0102,-0.0331,-0.0165,846,865,910,1030,0.00,0.01,-0.45,0.82,0.3996,3,1,0,0.00,0.00,-0.04,0.02,0.00,-0.04,0.82,174,63
5805,3.3,6.1,15.3,0.071,0.147,-1.017,0.4,-6.5,0.0,-0.0109,-0.0275,-0.0264,832,891,895,1036,0.00,0.01,-0.45,0.82,0.4001,3,1,0,0.00,-0.01,-0.06,0.03,0.00,-0.04,0.82,174,63
5815,0.1,-15.4,-20.2,0.220,0.110,-0.931,0.9,-6.7,0.0,-0.0003,0.0056,-0.0168,871,935,896,949,0.00,0.01,-0.45,0.83,0.3995,3,1,0,0.00,-0.01,-0.07,0.01,0.00,-0.04,0.83,174,63
5825,5.2,-9.8,19.5,0.107,0.062,-1.081,0.6,-5.9,0.0,-0.0051,0.0007,-0.0293,865,964,853,979,0.00,0.01,-0.45,0.83,0.4009,3,1,0,0.00,0.00,-0.05,0.01,0.00,-0.04,0.84,174,63
5835,5.7,-7.0,2.7,0.065,-0.023,-1.089,0.2,-5.4,0.0,-0.0065,-0.0014,-0.0234,881,934,868,984,0.00,0.01,-0.45,0.84,0.4016,3,1,0,0.00,0.00,-0.04,0.01,0.00,-0.04,0.84,174,63
5846,5.3,-8.1,-17.1,0.002,-0.045,-0.966,-0.1,-5.2,0.0,-0.0073,-0.0037,-0.0189,875,923,877,977,0.00,0.01,-0.45,0.84,0.3996,3,1,0,0.00,0.00,-0.03,0.02,0.00,-0.04,0.85,174,63
5856,0.0,-0.1,20.8,-0.025,-0.015,-0.909,-0.9,-4.7,0.0,-0.0020,-0.0077,-0.0291,862,960,859,976,0.00,0.01,-0.45,0.85,0.4002,3,1,0,0.00,0.00,-0.02,0.04,0.00,-0.04,0.85,174,63
5866,0.7,-2.8,-25.8,0.148,-0.021,-0.993,-1.2,-4.7,0.0,-0.0041,-0.0062,-0.0145,885,908,891,970,0.00,0.01,-0.46,0.85,0.4000,3,1,0,0.00,0.00,-0.02,0.04,0.00,-0.04,0.86,174,63
5876,-8.5,-9.9,15.3,0.138,-0.061,-0.932,-1.3,-4.6,0.0,0.0061,0.0022,-0.0278,844,962,878,970,0.00,0.01,-0.45,0.86,0.3999,3,1,0,0.00,0.00,-0.02,0.04,0.00,-0.04,0.86,174,63
5886,-8.6,-16.5,18.8,-0.033,-0.042,-0.982,-1.1,-4.3,0.0,0.0064,0.0091,-0.0282,872,1003,864,927,0.00,0.01,-0.45,0.86,0.4015,3,1,0,0.00,0.00,-0.02,0.03,0.00,-0.04,0.86,174,63
5896,-5.8,-0.3,-9.0,-0.024,-0.132,-0.933,-0.7,-3.9,0.0,0.0043,-0.0051,-0.0208,867,972,884,947,0.00,0.01,-0.45,0.87,0.4020,3,1,0,0.00,0.00,-0.01,0.02,0.00,-0.04,0.86,174,63
5906,-3.0,5.2,34.0,-0.072,-0.067,-1.058,-0.4,-3.8,0.0,0.0013,-0.0122,-0.0334,825,969,875,988,0.00,0.01,-0.45,0.87,0.4004,3,1,0,0.00,0.00,0.00,0.01,0.00,-0.04,0.87,174,63
5916,7.8,-3.1,-16.9,-0.062,0.005,-0.819,-0.1,-4.0,0.0,-0.0069,-0.0001,-0.0179,892,938,866,955,0.00,0.01,-0.45,0.88,0.3995,3,1,0,0.00,0.00,-0.01,0.00,0.00,-0.04,0.87,174,63
5926,15.3,11.2,-1.1,-0.042,0.055,-0.977,0.1,-4.7,0.0,-0.0164,-0.0190,-0.0232,861,912,871,1016,0.00,0.01,-0.45,0.88,0.4008,3,1,0,0.00,0.00,-0.02,0.00,0.00,-0.04,0.88,173,63
5936,11.3,10.3,8.0,0.013,0.129,-1.181,0.0,-4.7,0.0,-0.0127,-0.0220,-0.0245,851,899,895,1028,0.00,0.01,-0.45,0.88,0.4025,3,1,0,0.00,0.00,-0.02,0.00,0.00,-0.04,0.88,173,63
5947,1.6,-10.1,-19.3,0.199,0.108,-1.048,-0.1,-4.7,0.0,-0.0028,0.0023,-0.0177,873,921,893,981,0.00,0.01,-0.45,0.89,0.4017,3,1,0,0.00,0.00,-0.01,0.00,0.00,-0.04,0.88,173,63
5957,3.2,-10.8,30.7,0.070,0.122,-1.004,-0.1,-4.3,0.0,-0.0045,0.0034,-0.0330,857,966,845,990,0.00,0.01,-0.45,0.89,0.4006,3,1,0,0.00,0.00,-0.01,0.00,0.00,-0.04,0.89,173,63
5967,3.1,-4.9,-12.1,-0.019,-0.114,-1.267,-0.1,-3.9,0.0,-0.0044,-0.0016,-0.0196,886,944,875,965,0.00,0.01,-0.45,0.90,0.4019,3,1,0,0.00,0.00,0.00,0.00,0.00,-0.04,0.89,173,63
5977,1.7,1.6,-4.2,-0.027,-0.205,-1.111,-0.4,-4.0,0.0,-0.0033,-0.0088,-0.0230,856,936,882,985,0.00,0.01,-0.45,0.90,0.4006,3,1,0,0.00,0.00,0.00,0.00,0.00,-0.04,0.90,173,63
5987,1.4,2.7,16.9,-0.013,-0.073,-1.013,-0.4,-3.8,0.0,-0.0006,-0.0050,-0.0282,861,965,870,976,0.00,0.01,-0.45,0.91,0.4022,3,1,0,0.00,0.00,0.00,0.00,0.00,-0.04,0.90,173,63
5997,4.8,12.1,-28.5,0.104,-0.007,-1.093,-0.4,-4.7,0.0,-0.0063,-0.0200,-0.0157,876,903,902,996,0.00,0.01,-0.45,0.91,0.4029,3,1,0,0.00,0.00,-0.01,0.00,0.00,-0.04,0.91,173,63
6007,-6.8,9.2,20.4,0.021,-0.047,-0.978,-1.1,-5.3,0.0,0.0015,-0.0197,-0.0308,832,915,886,1036,0.00,0.01,-0.45,0.92,0.4019,3,1,0,0.00,0.00,-0.03,0.02,0.00,-0.04,0.92,173,63
6017,-10.2,-10.5,3.3,0.004,-0.060,-0.834,-1.4,-5.0,0.0,0.0076,0.0023,-0.0254,864,975,882,945,0.00,0.01,-0.45,0.92,0.4016,3,1,0,0.00,0.00,-0.02,0.02,0.00,-0.04,0.91,173,63
6027,-8.0,4.0,2.3,0.010,-0.180,-0.909,-1.8,-5.1,0.0,0.0051,-0.0123,-0.0260,846,975,885,964,0.00,0.01,-0.44,0.92,0.4020,3,1,0,0.00,0.00,-0.03,0.03,0.00,-0.04,0.91,173,63
6037,3.0,17.0,30.5,-0.059,-0.120,-1.030,-2.3,-5.2,0.0,-0.0051,-0.0250,-0.0342,817,927,892,1041,0.00,0.01,-0.44,0.93,0.4031,3,1,0,0.00,0.00,-0.03,0.04,0.00,-0.04,0.91,173,63
6048,11.5,7.3,-18.6,-0.023,-0.038,-0.918,-2.2,-5.1,0.0,-0.0149,-0.0156,-0.0199,876,912,888,1005,0.00,0.01,-0.44,0.93,0.4036,3,1,0,0.00,0.00,-0.03,0.03,0.00,-0.04,0.91,173,63
6058,12.8,18.8,12.6,-0.081,0.075,-1.017,-2.6,-5.8,0.0,-0.0168,-0.0253,-0.0314,847,902,879,1061,0.00,0.01,-0.44,0.94,0.4044,3,1,0,0.00,0.00,-0.05,0.04,0.00,-0.04,0.93,172,63
6068,5.7,5.8,-4.6,0.049,0.219,-1.074,-2.4,-6.4,0.0,-0.0115,-0.0214,-0.0236,854,892,902,1039,0.00,0.01,-0.44,0.94,0.4044,3,1,0,0.00,-0.01,-0.06,0.03,0.00,-0.04,0.94,172,63
6078,-2.4,-25.5,-11.8,0.272,0.089,-0.986,-2.5,-6.4,0.0,-0.0005,0.0125,-0.0231,884,972,866,953,0.00,0.01,-0.44,0.95,0.4027,3,1,0,0.00,-0.01,-0.06,0.04,0.00,-0.04,0.94,171,63
6088,-2.1,-31.2,33.3,0.121,0.058,-0.999,-3.0,-5.6,0.0,-0.0019,0.0219,-0.0364,890,1020,812,954,0.00,0.00,-0.44,0.95,0.4027,3,1,0,0.00,0.00,-0.05,0.05,0.00,-0.04,0.94,171,63
6098,0.0,-14.6,-16.9,0.047,-0.106,-1.050,-3.0,-5.2,0.0,-0.0041,0.0063,-0.0218,900,959,857,961,0.00,0.00,-0.44,0.95,0.4030,3,1,0,0.00,0.00,-0.05,0.05,0.00,-0.04,0.94,171,63
6108,-6.9,-2.4,13.9,-0.008,-0.159,-0.946,-2.6,-4.5,0.0,0.0023,-0.0056,-0.0321,842,967,869,991,0.00,0.00,-0.44,0.96,0.4020,3,1,0,0.00,0.00,-0.03,0.04,0.00,-0.05,0.94,170,63
6118,-7.8,-3.0,13.3,0.081,-0.075,-0.929,-2.9,-4.1,0.0,0.0037,-0.0042,-0.0314,854,983,876,971,0.00,0.00,-0.44,0.96,0.4038,3,1,0,0.00,0.00,-0.02,0.05,0.00,-0.05,0.95,170,63
6128,-5.1,-0.7,-15.6,0.185,-0.025,-0.953,-3.1,-3.9,0.0,-0.0024,-0.0116,-0.0238,557,638,592,691,0.00,0.00,-0.44,0.97,0.2444,3,1,0,0.00,0.00,-0.02,0.05,0.00,-0.05,0.95,170,63
6138,-12.3,-10.4,36.8,0.093,-0.078,-0.823,-3.4,-4.2,0.0,0.0077,0.0030,-0.0394,535,696,566,695,0.00,0.00,-0.43,0.97,0.2461,3,1,0,0.00,0.00,-0.03,0.06,0.00,-0.05,0.95,170,63
6149,-10.5,-26.6,-6.0,0.045,-0.124,-0.708,-2.9,-4.7,0.0,0.0068,0.0184,-0.0263,609,734,577,644,0.00,0.00,-0.43,0.97,0.2556,3,1,0,0.00,0.00,-0.05,0.05,0.00,-0.05,0.95,170,63
6159,-10.0,-22.3,16.6,0.090,-0.131,-0.675,-3.1,-4.8,0.0,0.0069,0.0127,-0.0346,596,758,590,693,0.00,0.00,-0.43,0.98,0.2652,3,1,0,0.00,0.00,-0.05,0.06,0.00,-0.05,0.96,170,63
6169,-6.9,-20.9,26.9,0.133,-0.051,-0.820,-3.1,-4.7,0.0,0.0026,0.0130,-0.0371,621,761,611,738,0.00,0.00,-0.43,0.98,0.2778,3,1,0,0.00,0.00,-0.05,0.06,0.01,-0.05,0.96,170,63
6179,-4.4,-12.1,-2.4,0.179,-0.048,-0.783,-3.2,-4.7,0.0,-0.0018,0.0016,-0.0294,652,756,639,757,0.00,0.00,-0.43,0.98,0.2874,3,1,0,0.00,0.00,-0.05,0.06,0.01,-0.05,0.97,170,63
6189,-5.4,-5.0,29.7,-0.020,0.045,-0.607,-2.9,-4.4,0.0,0.0013,-0.0025,-0.0389,640,784,654,808,0.00,0.00,-0.43,0.99,0.2982,3,1,0,0.00,0.00,-0.05,0.06,0.01,-0.05,0.98,170,63
6199,-10.0,-1.8,-9.3,-0.009,0.011,-0.663,-2.5,-3.8,0.0,0.0064,-0.0052,-0.0271,671,793,698,779,0.00,0.00,-0.43,0.99,0.3055,3,1,0,0.00,0.00,-0.04,0.05,0.01,-0.05,0.99,170,63
6209,-7.9,-12.3,2.4,-0.068,0.062,-0.870,-2.0,-3.2,0.0,0.0047,0.0077,-0.0316,703,841,682,785,0.00,0.00,-0.43,0.99,0.3149,3,1,0,0.00,0.00,-0.02,0.04,0.01,-0.05,0.99,170,63
6219,-5.7,-18.3,23.5,0.000,0.035,-0.806,-1.4,-2.8,0.0,0.0022,0.0136,-0.0373,728,868,672,809,0.00,0.00,-0.43,1.00,0.3236,3,1,0,0.00,0.00,-0.02,0.03,0.01,-0.05,0.99,170,63
6229,2.9,-24.0,-13.0,0.161,0.068,-0.620,-0.9,-3.3,0.0,-0.0050,0.0175,-0.0270,766,844,691,821,0.00,0.00,-0.43,1.00,0.3296,3,1,0,0.00,0.00,-0.03,0.02,0.01,-0.05,0.98,169,63
6240,3.6,-9.5,22.0,0.128,0.054,-0.838,-1.6,-3.7,0.0,-0.0088,-0.0006,-0.0387,734,847,703,883,0.00,0.00,-0.42,1.00,0.3356,3,1,0,0.00,0.00,-0.04,0.04,0.01,-0.05,0.99,168,63
6250,5.0,-12.5,3.9,0.098,0.036,-0.653,-1.0,-3.9,0.0,-0.0073,0.0054,-0.0323,763,841,727,885,0.00,0.00,-0.42,1.00,0.3420,3,1,0,0.00,0.00,-0.05,0.03,0.01,-0.05,1.00,168,63
6260,3.7,-5.8,-5.1,0.036,0.033,-0.663,-1.3,-3.9,0.0,-0.0062,-0.0012,-0.0303,755,848,749,892,0.00,0.00,-0.42,1.00,0.3458,3,1,0,0.00,0.00,-0.05,0.04,0.01,-0.05,1.00,168,63
6270,-2.4,6.4,22.9,-0.085,0.053,-0.759,-1.0,-3.8,0.0,-0.0006,-0.0136,-0.0383,722,864,771,918,0.00,0.00,-0.42,1.00,0.3499,3,1,0,0.00,0.00,-0.05,0.03,0.01,-0.05,1.01,167,63
6280,5.4,-2.3,-13.2,0.056,0.086,-0.931,0.0,-3.6,0.0,-0.0066,-0.0045,-0.0279,788,875,766,890,0.00,0.00,-0.42,1.00,0.3556,3,1,0,0.00,0.00,-0.04,0.01,0.01,-0.05,1.03,166,63
6290,3.8,-8.8,21.2,-0.007,0.186,-0.988,1.9,-3.7,0.0,-0.0030,0.0018,-0.0388,772,915,749,904,0.00,0.00,-0.42,1.01,0.3583,3,1,0,0.00,0.00,-0.05,-0.03,0.01,-0.05,1.02,165,63
6300,-0.7,1.6,11.1,-0.002,0.091,-0.847,2.9,-4.3,0.0,0.0026,-0.0068,-0.0352,764,906,783,905,0.00,0.00,-0.42,1.01,0.3608,3,1,0,0.00,-0.01,-0.06,-0.06,0.01,-0.05,1.01,164,63
6310,3.9,15.3,-6.8,-0.117,0.041,-0.888,2.6,-4.6,0.0,-0.0025,-0.0233,-0.0307,759,863,809,945,0.00,0.00,-0.42,1.01,0.3630,3,1,0,0.00,-0.01,-0.07,-0.05,0.01,-0.05,1.02,164,63
6320,4.0,10.6,27.2,-0.160,0.038,-0.873,2.9,-4.6,0.0,-0.0047,-0.0040,-0.0412,772,909,769,943,0.00,0.00,-0.42,1.01,0.3654,3,1,0,0.00,-0.01,-0.07,-0.06,0.01,-0.05,1.03,163,63
6330,2.1,-5.3,-15.3,0.100,-0.060,-0.963,3.4,-5.5,0.0,0.0000,-0.0035,-0.0280,812,921,789,895,0.00,0.00,-0.42,1.01,0.3686,3,1,0,0.01,-0.01,-0.10,-0.07,0.01,-0.05,1.02,163,63
6340,1.0,-1.4,7.8,0.146,-0.070,-0.993,3.4,-6.3,0.0,0.0037,-0.0101,-0.0365,762,914,814,938,0.00,0.00,-0.42,1.01,0.3699,3,1,0,0.01,-0.01,-0.10,-0.07,0.01,-0.05,1.00,163,63
6351,7.1,11.6,6.4,-0.008,0.043,-0.989,3.2,-6.1,0.0,-0.0031,-0.0233,-0.0343,746,876,851,975,0.00,0.00,-0.42,1.01,0.3728,3,1,0,0.01,-0.01,-0.09,-0.06,0.01,-0.05,1.02,163,63
6361,9.9,14.1,-24.0,-0.088,0.054,-0.974,2.6,-5.6,0.0,-0.0039,-0.0258,-0.0265,775,860,857,973,0.00,0.00,-0.42,1.01,0.3749,3,1,0,0.00,-0.01,-0.09,-0.04,0.01,-0.05,1.04,163,63
6371,12.0,20.7,19.4,-0.115,0.038,-0.901,1.8,-5.4,0.0,-0.0113,-0.0295,-0.0392,766,887,819,997,0.00,0.00,-0.42,1.01,0.3755,3,1,0,0.00,-0.01,-0.10,-0.04,0.01,-0.05,1.03,163,63
6381,10.8,19.4,-20.3,0.014,-0.060,-0.801,1.3,-6.0,0.0,-0.0106,-0.0288,-0.0270,796,852,842,986,0.00,0.00,-0.42,1.01,0.3765,3,1,0,0.00,-0.01,-0.12,-0.04,0.01,-0.05,1.03,164,63
6391,11.4,20.3,-4.5,0.026,-0.052,-0.803,1.1,-6.8,0.0,-0.0134,-0.0300,-0.0327,787,847,826,1017,0.00,0.00,-0.42,1.01,0.3765,3,1,0,0.00,-0.01,-0.13,-0.04,0.01,-0.05,1.03,164,63
6401,8.2,-2.7,15.7,0.073,0.076,-0.753,1.0,-7.1,0.0,-0.0083,-0.0075,-0.0381,802,881,798,990,0.00,0.00,-0.42,1.01,0.3757,3,1,0,0.00,-0.02,-0.13,-0.04,0.01,-0.05,1.03,164,63
6411,3.6,-24.1,-21.0,0.158,0.082,-0.773,1.3,-6.2,0.0,-0.0028,0.0073,-0.0276,835,928,796,912,0.00,0.00,-0.42,1.01,0.3757,3,1,0,0.00,-0.01,-0.11,-0.05,0.01,-0.05,1.04,164,63
6421,2.0,-22.2,25.1,0.052,0.011,-0.994,1.4,-5.2,0.0,-0.0017,0.0138,-0.0415,812,970,771,932,0.00,0.00,-0.41,1.01,0.3775,3,1,0,0.00,-0.01,-0.09,-0.05,0.01,-0.05,1.04,164,63
6431,4.1,-15.1,-10.2,0.011,-0.068,-1.307,1.3,-4.3,0.0,-0.0051,0.0090,-0.0303,847,943,794,928,0.00,0.00,-0.42,1.01,0.3812,3,1,0,0.00,-0.01,-0.07,-0.06,0.01,-0.05,1.04,164,63
6442,0.5,-3.9,-12.1,-0.004,-0.148,-1.178,1.5,-4.2,0.0,-0.0002,-0.0036,-0.0307,813,934,818,942,0.00,0.00,-0.41,1.01,0.3805,3,1,0,0.01,-0.01,-0.07,-0.06,0.01,-0.04,1.04,163,63
6452,-5.4,-8.9,10.0,-0.036,-0.129,-1.044,1.8,-3.6,0.0,0.0060,0.0019,-0.0368,809,960,813,938,0.00,0.00,-0.42,1.01,0.3822,3,1,0,0.01,-0.01,-0.06,-0.07,0.01,-0.04,1.04,162,63
6462,2.0,-4.7,-29.2,0.002,-0.084,-0.810,2.0,-3.4,0.0,-0.0004,0.0002,-0.0254,834,929,832,930,0.00,0.00,-0.42,1.01,0.3827,3,1,0,0.01,-0.01,-0.06,-0.08,0.01,-0.04,1.04,161,63
6472,7.9,4.5,14.6,-0.070,0.063,-0.991,1.6,-3.3,0.0,-0.0074,-0.0112,-0.0387,808,928,810,985,0.00,0.00,-0.41,1.01,0.3837,3,1,0,0.01,-0.01,-0.06,-0.07,0.01,-0.04,1.04,161,63
6482,1.2,-5.8,1.4,-0.035,0.059,-0.942,1.6,-3.5,0.0,-0.0017,-0.0053,-0.0325,816,932,829,959,0.00,0.00,-0.42,1.01,0.3843,3,1,0,0.01,-0.01,-0.06,-0.07,0.01,-0.04,1.03,160,63
6492,-8.2,-13.1,-2.4,0.109,0.031,-0.845,1.6,-4.2,0.0,0.0098,0.0027,-0.0337,789,959,844,930,0.00,0.00,-0.41,1.01,0.3825,3,1,0,0.01,-0.01,-0.07,-0.07,0.01,-0.04,1.02,160,63
6502,-2.5,-17.1,37.5,0.034,0.081,-0.897,2.0,-4.2,0.0,0.0034,0.0096,-0.0453,780,989,819,946,0.00,0.00,-0.41,1.01,0.3840,3,1,0,0.01,-0.01,-0.08,-0.08,0.01,-0.04,1.03,160,63
6512,1.4,-4.9,-13.6,0.073,-0.030,-0.974,2.3,-4.4,0.0,0.0046,-0.0037,-0.0302,813,945,844,941,0.00,0.00,-0.42,1.01,0.3852,3,1,0,0.01,-0.01,-0.08,-0.09,0.01,-0.04,1.03,160,63
6522,-2.1,15.9,15.3,-0.044,-0.079,-1.029,2.3,-5.0,0.0,0.0046,-0.0251,-0.0396,748,926,871,999,0.00,0.00,-0.41,1.01,0.3853,3,1,0,0.01,-0.01,-0.09,-0.10,0.01,-0.04,1.03,160,63
6532,5.3,22.6,-2.0,-0.045,0.062,-0.878,2.7,-5.2,0.0,-0.0038,-0.0313,-0.0332,765,894,887,1005,0.00,0.00,-0.42,1.01,0.3863,3,1,0,0.01,-0.01,-0.10,-0.11,0.01,-0.04,1.02,161,63
6542,13.8,33.2,-23.6,-0.084,0.077,-1.009,2.5,-5.5,0.0,-0.0072,-0.0376,-0.0283,778,858,893,1027,0.00,0.00,-0.41,1.01,0.3870,3,1,0,0.01,-0.01,-0.10,-0.11,0.01,-0.04,1.02,162,63
6552,12.0,38.1,20.9,-0.139,0.123,-1.153,2.4,-4.7,0.0,-0.0107,-0.0463,-0.0403,756,864,879,1074,0.00,0.00,-0.41,1.01,0.3892,3,1,0,0.01,-0.01,-0.08,-0.11,0.01,-0.04,1.03,162,63
6563,2.3,14.3,-23.6,0.122,0.116,-1.024,1.7,-4.1,0.0,-0.0055,-0.0223,-0.0258,810,887,874,992,0.01,0.00,-0.42,1.00,0.3879,3,1,0,0.01,-0.01,-0.06,-0.10,0.01,-0.04,1.03,162,63
6573,-1.3,1.9,12.9,0.066,0.122,-0.975,1.2,-3.5,0.0,0.0014,-0.0088,-0.0382,799,949,836,980,0.01,0.00,-0.41,1.00,0.3880,3,1,0,0.01,-0.01,-0.05,-0.09,0.01,-0.04,1.02,162,63
6583,0.9,-6.5,11.3,-0.028,0.065,-0.982,0.8,-2.3,0.0,-0.0015,0.0110,-0.0363,848,980,800,944,0.01,0.00,-0.42,1.00,0.3891,3,1,0,0.01,0.00,-0.02,-0.09,0.01,-0.04,1.03,162,63
6593,-5.2,-1.0,-24.9,-0.032,-0.158,-0.934,0.7,-1.8,0.0,0.0048,-0.0040,-0.0266,838,956,844,934,0.01,0.00,-0.42,1.00,0.3890,3,1,0,0.01,0.00,-0.01,-0.09,0.01,-0.04,1.03,162,63
6603,-6.8,6.4,19.9,-0.106,-0.103,-0.829,0.9,-1.2,0.0,0.0069,-0.0033,-0.0402,795,974,834,960,0.01,0.00,-0.41,1.00,0.3879,3,1,0,0.01,0.00,0.00,-0.10,0.01,-0.04,1.02,161,63
6613,-0.5,-3.4,-25.8,-0.037,-0.097,-0.757,0.6,-1.0,0.0,0.0007,0.0022,-0.0255,859,959,834,923,0.01,0.00,-0.42,1.00,0.3893,3,1,0,0.01,0.00,0.00,-0.10,0.01,-0.04,1.01,161,63
6623,4.1,5.8,3.8,0.043,-0.038,-0.882,0.5,-1.7,0.0,-0.0048,-0.0109,-0.0351,824,936,830,987,0.01,0.00,-0.42,1.00,0.3899,3,1,0,0.01,0.00,-0.01,-0.10,0.01,-0.04,1.01,161,63
6633,-2.9,-6.1,15.2,0.019,0.013,-0.877,0.2,-1.8,0.0,0.0003,0.0008,-0.0361,828,966,826,961,0.01,0.00,-0.42,1.00,0.3901,3,1,0,0.01,0.00,-0.01,-0.10,0.01,-0.04,1.01,161,63
6643,-3.5,-22.1,-14.9,-0.009,0.030,-0.888,0.0,-2.0,0.0,0.0048,0.0175,-0.0293,864,993,815,908,0.01,0.00,-0.42,1.00,0.3901,3,1,0,0.01,0.00,-0.01,-0.09,0.01,-0.04,1.02,161,63
6654,0.4,-11.2,36.9,-0.008,-0.007,-0.915,0.0,-2.5,0.0,0.0003,0.0114,-0.0451,830,1002,788,957,0.01,0.00,-0.42,1.00,0.3897,3,1,0,0.01,0.00,-0.02,-0.09,0.01,-0.04,1.03,161,63
6664,0.0,-2.3,-16.4,0.021,-0.132,-0.864,-0.1,-2.8,0.0,-0.0012,-0.0028,-0.0281,839,941,839,948,0.01,0.00,-0.42,1.00,0.3884,3,1,0,0.01,0.00,-0.02,-0.10,0.01,-0.04,1.03,161,63
6674,4.8,7.8,0.0,-0.050,-0.093,-0.778,-0.1,-2.7,0.0,-0.0063,-0.0139,-0.0337,804,921,843,989,0.01,0.00,-0.42,1.00,0.3871,3,1,0,0.01,0.00,-0.02,-0.10,0.01,-0.04,1.02,161,63
6684,12.2,12.0,8.6,-0.047,0.099,-0.755,-0.1,-2.7,0.0,-0.0126,-0.0175,-0.0353,815,909,838,1007,0.01,0.00,-0.42,1.00,0.3887,3,1,0,0.01,0.00,-0.01,-0.10,0.01,-0.04,1.03,161,63
6694,8.6,17.4,-37.1,0.086,0.068,-0.903,0.0,-3.5,0.0,-0.0099,-0.0244,-0.0220,821,864,877,1003,0.01,0.00,-0.42,1.00,0.3881,3,1,0,0.01,0.00,-0.02,-0.11,0.01,-0.04,1.03,161,63
6704,-1.7,3.6,22.7,0.114,0.095,-0.811,0.1,-3.6,0.0,-0.0028,-0.0185,-0.0394,786,924,846,1005,0.01,0.00,-0.42,1.00,0.3877,3,1,0,0.01,0.00,-0.02,-0.11,0.01,-0.04,1.03,161,63
6714,0.0,-18.6,-11.2,0.159,0.088,-0.779,0.1,-3.4,0.0,-0.0011,0.0118,-0.0291,855,964,819,921,0.01,0.00,-0.42,1.00,0.3873,3,1,0,0.01,0.00,-0.01,-0.11,0.01,-0.04,1.02,161,63
6724,0.1,-5.7,-0.4,0.099,-0.081,-0.885,0.0,-3.5,0.0,0.0003,-0.0005,-0.0342,825,956,828,957,0.01,0.00,-0.42,1.00,0.3883,3,1,0,0.01,0.00,-0.01,-0.11,0.01,-0.04,1.02,161,63
6734,3.6,8.8,14.2,0.002,-0.095,-0.853,-0.1,-3.2,0.0,-0.0050,-0.0155,-0.0365,802,916,845,999,0.01,0.00,-0.42,0.99,0.3878,3,1,0,0.01,0.00,0.00,-0.10,0.01,-0.04,1.02,161,63
6744,2.9,16.3,-34.0,0.000,-0.018,-0.879,-0.4,-3.4,0.0,-0.0045,-0.0224,-0.0223,816,890,880,978,0.01,0.00,-0.42,0.99,0.3881,3,1,0,0.01,0.00,0.00,-0.10,0.01,-0.04,1.00,161,63
6755,7.1,26.4,19.1,-0.110,0.089,-0.971,-0.5,-3.8,0.0,-0.0085,-0.0333,-0.0382,778,898,869,1040,0.01,0.00,-0.42,0.99,0.3909,3,1,0,0.01,0.00,-0.01,-0.09,0.01,-0.04,0.99,161,63
6765,-2.0,18.2,-21.5,0.035,0.061,-0.955,-0.6,-5.0,0.0,0.0001,-0.0267,-0.0252,800,887,904,1002,0.01,0.00,-0.42,0.99,0.3920,3,1,0,0.01,0.00,-0.03,-0.09,0.01,-0.04,0.99,161,63
6775,-14.5,4.8,-2.7,0.049,-0.088,-1.030,-0.7,-5.9,0.0,0.0122,-0.0168,-0.0318,785,945,893,977,0.01,0.00,-0.42,0.99,0.3928,3,1,0,0.01,-0.01,-0.05,-0.09,0.01,-0.03,1.00,161,63
6785,-1.4,5.3,26.6,-0.070,0.038,-1.046,-0.7,-6.3,0.0,-0.0005,-0.0152,-0.0394,802,955,855,995,0.01,0.00,-0.42,0.99,0.3935,3,1,0,0.01,-0.01,-0.06,-0.09,0.02,-0.03,1.00,161,63
6795,-2.3,16.3,-23.9,-0.064,-0.093,-1.027,-0.6,-6.8,0.0,0.0020,-0.0247,-0.0247,807,920,899,977,0.01,0.01,-0.42,0.99,0.3931,3,1,0,0.01,-0.01,-0.07,-0.10,0.02,-0.03,1.00,161,63
6805,-2.0,16.0,25.0,-0.141,-0.058,-1.085,-0.7,-7.1,0.0,0.0000,-0.0267,-0.0391,774,946,868,1005,0.01,0.00,-0.42,0.99,0.3919,3,1,0,0.01,-0.01,-0.08,-0.10,0.02,-0.03,0.99,161,63
6815,9.1,12.9,-20.9,-0.075,0.030,-0.959,-0.4,-6.7,0.0,-0.0070,-0.0143,-0.0245,839,905,867,986,0.02,0.00,-0.43,0.99,0.3924,3,1,0,0.01,-0.01,-0.07,-0.10,0.02,-0.03,0.99,162,63
6825,13.4,21.0,-15.9,-0.073,0.052,-1.085,-0.2,-6.0,0.0,-0.0150,-0.0307,-0.0266,829,890,864,1024,0.02,0.01,-0.42,0.98,0.3937,3,1,0,0.01,-0.01,-0.05,-0.11,0.02,-0.03,0.99,162,63
6835,10.9,5.6,11.6,0.017,0.198,-1.183,-0.2,-5.2,0.0,-0.0140,-0.0162,-0.0330,838,910,846,1024,0.02,0.00,-0.43,0.98,0.3952,3,1,0,0.01,0.00,-0.03,-0.11,0.02,-0.03,0.99,162,63
6846,1.6,-11.9,-26.6,0.163,0.105,-1.005,-0.1,-5.2,0.0,-0.0030,0.0032,-0.0226,867,935,850,956,0.02,0.00,-0.43,0.98,0.3939,3,1,0,0.02,0.00,-0.03,-0.12,0.02,-0.03,1.00,162,63
6856,3.8,-9.3,26.9,0.040,0.090,-1.049,0.1,-5.0,0.0,-0.0049,0.0009,-0.0387,840,969,813,983,0.02,0.00,-0.43,0.98,0.3935,3,1,0,0.02,0.00,-0.03,-0.12,0.02,-0.03,1.02,162,63
6866,5.0,-5.8,-19.6,-0.030,-0.070,-0.997,0.0,-4.8,0.0,-0.0056,-0.0023,-0.0238,859,928,847,958,0.02,0.00,-0.43,0.98,0.3917,3,1,0,0.02,0.00,-0.03,-0.12,0.02,-0.03,1.01,162,63
6876,2.0,-6.6,-12.2,-0.061,-0.101,-0.943,-0.2,-4.8,0.0,-0.0034,-0.0016,-0.0268,846,936,840,960,0.02,0.00,-0.43,0.98,0.3902,3,1,0,0.01,0.00,-0.03,-0.12,0.02,-0.03,1.00,162,63
6886,2.6,-13.6,8.1,-0.042,0.026,-1.071,0.0,-4.0,0.0,-0.0033,0.0077,-0.0319,859,967,817,950,0.02,0.00,-0.43,0.98,0.3919,3,1,0,0.02,0.00,-0.02,-0.13,0.02,-0.03,0.99,162,63
6896,7.3,-15.1,-37.2,0.089,-0.031,-1.024,0.5,-4.2,0.0,-0.0089,0.0089,-0.0187,898,934,829,936,0.02,0.00,-0.43,0.98,0.3925,3,1,0,0.02,0.00,-0.02,-0.14,0.02,-0.03,1.00,162,63
6906,0.1,-16.9,19.2,0.082,-0.009,-1.067,0.5,-4.1,0.0,-0.0008,0.0093,-0.0355,851,970,813,959,0.02,0.00,-0.43,0.98,0.3919,3,1,0,0.02,0.00,-0.02,-0.14,0.02,-0.03,1.01,162,63
6916,-3.9,-32.7,-8.7,0.041,-0.059,-0.942,0.5,-4.5,0.0,0.0036,0.0218,-0.0249,885,993,816,897,0.02,0.00,-0.43,0.98,0.3915,3,1,0,0.02,0.00,-0.02,-0.14,0.02,-0.03,1.01,162,63
6926,4.7,-21.6,3.8,0.092,-0.057,-0.879,0.2,-5.5,0.0,-0.0057,0.0126,-0.0307,858,968,807,944,0.02,0.00,-0.43,0.98,0.3896,3,1,0,0.02,-0.01,-0.05,-0.13,0.02,-0.03,1.01,162,63
6936,1.7,-16.5,20.0,-0.077,-0.085,-1.109,0.1,-6.1,0.0,-0.0037,0.0065,-0.0349,846,960,812,962,0.02,0.00,-0.43,0.98,0.3901,3,1,0,0.02,-0.01,-0.06,-0.13,0.02,-0.03,1.02,163,63
6946,6.2,-20.4,-30.1,-0.041,-0.125,-0.938,-0.5,-7.4,0.0,-0.0080,0.0095,-0.0199,874,914,829,953,0.02,0.00,-0.43,0.98,0.3888,3,1,0,0.02,-0.01,-0.09,-0.12,0.02,-0.03,1.02,163,63
6957,7.0,-9.0,12.1,-0.058,0.004,-0.851,-0.8,-8.4,0.0,-0.0092,-0.0029,-0.0325,836,930,818,976,0.02,0.00,-0.43,0.98,0.3875,3,1,0,0.01,-0.02,-0.12,-0.11,0.02,-0.03,1.02,164,63
6967,10.6,-3.9,-26.8,0.023,0.044,-1.031,-1.1,-9.0,0.0,-0.0135,-0.0113,-0.0192,860,881,851,975,0.02,0.00,-0.44,0.98,0.3884,3,1,0,0.01,-0.02,-0.12,-0.10,0.02,-0.03,1.02,164,63
6977,15.1,-6.9,-6.1,0.101,0.110,-1.045,-1.0,-9.1,0.0,-0.0174,-0.0057,-0.0267,848,880,830,1002,0.02,0.00,-0.43,0.98,0.3874,3,1,0,0.01,-0.02,-0.12,-0.10,0.02,-0.03,1.02,165,63
6987,3.8,-18.0,20.3,0.064,0.095,-0.951,-0.6,-8.4,0.0,-0.0095,0.0037,-0.0325,852,938,801,960,0.02,0.00,-0.44,0.98,0.3864,3,1,0,0.02,-0.02,-0.11,-0.11,0.02,-0.03,1.01,165,63
6997,0.5,-8.0,-24.7,0.117,-0.067,-0.901,-0.5,-8.6,0.0,-0.0047,-0.0055,-0.0212,846,901,845,955,0.02,0.00,-0.44,0.98,0.3857,3,1,0,0.02,-0.02,-0.11,-0.12,0.02,-0.03,1.01,165,63
7007,-1.6,-2.0,18.8,0.045,-0.147,-0.925,-0.5,-8.2,0.0,-0.0022,-0.0137,-0.0344,800,922,844,983,0.02,0.00,-0.44,0.98,0.3861,3,1,0,0.02,-0.02,-0.11,-0.12,0.02,-0.03,1.01,165,63
7017,6.2,-9.5,-21.4,0.041,-0.016,-0.790,-0.3,-8.0,0.0,-0.0094,-0.0073,-0.0204,842,880,854,968,0.02,0.00,-0.44,0.98,0.3853,3,1,0,0.02,-0.01,-0.10,-0.12,0.02,-0.03,1.01,165,63
7027,5.9,-2.9,-18.8,0.013,0.046,-0.723,0.0,-7.7,0.0,-0.0067,-0.0149,-0.0231,827,889,858,971,0.02,0.00,-0.44,0.98,0.3853,3,1,0,0.02,-0.01,-0.08,-0.12,0.02,-0.03,1.01,165,63
7037,3.3,2.4,2.1,0.010,0.140,-0.812,0.0,-6.9,0.0,-0.0046,-0.0129,-0.0275,819,898,863,976,0.02,0.00,-0.44,0.98,0.3868,3,1,0,0.02,-0.01,-0.08,-0.12,0.02,-0.02,1.01,165,63
7047,-4.1,-1.4,-33.6,0.078,0.024,-0.995,-0.1,-6.5,0.0,0.0027,-0.0087,-0.0168,839,905,880,936,0.02,0.00,-0.44,0.98,0.3875,3,1,0,0.02,-0.01,-0.07,-0.12,0.02,-0.02,1.02,165,63
7058,-7.1,4.5,27.1,-0.030,0.016,-0.972,0.0,-6.1,0.0,0.0056,-0.0145,-0.0347,788,936,861,970,0.02,0.00,-0.44,0.98,0.3869,3,1,0,0.02,-0.01,-0.07,-0.12,0.02,-0.02,1.01,165,63
7068,-8.4,9.1,-4.8,0.060,-0.076,-0.976,0.3,-5.9,0.0,0.0074,-0.0185,-0.0244,801,917,891,953,0.02,0.00,-0.44,0.98,0.3877,3,1,0,0.02,-0.01,-0.07,-0.13,0.02,-0.02,1.00,165,63
7078,-14.1,18.7,-0.1,0.031,-0.198,-0.955,0.6,-5.8,0.0,0.0110,-0.0244,-0.0281,769,918,903,968,0.02,0.00,-0.44,0.98,0.3873,3,1,0,0.02,-0.01,-0.08,-0.14,0.02,-0.02,1.01,165,63
7088,-8.6,18.5,15.3,-0.105,-0.149,-0.945,1.2,-6.0,0.0,0.0086,-0.0282,-0.0307,760,921,906,973,0.02,0.00,-0.44,0.98,0.3876,3,1,0,0.02,-0.01,-0.08,-0.14,0.02,-0.02,1.01,165,63
