t_s,gx,gy,gz,ax,ay,az,alt_m,climb_ms,vel_fwd,vel_right
0.011,0,0.1,0.1,0.011,0.01,-1.005,-0.97,0,0,0
0.021,0,0,0.1,0.011,0.01,-1.004,-0.97,0,0,0
0.032,-0.1,0,0.1,0.01,0.009,-1.004,-0.97,0,0,0
0.043,0,0,0.1,0.011,0.011,-1.005,-0.97,0,0,0
0.053,-0.1,0,0.1,0.012,0.01,-1.004,-0.97,0,0,0
0.064,0,0,0,0.011,0.009,-1.004,-0.97,0,0,0
0.075,0,0.1,0,0.012,0.01,-1.005,-0.97,0,0,0
0.085,0.1,0,0.1,0.012,0.009,-1.005,-0.97,0,0,0
0.091,0,0.1,-0.1,0.011,0.01,-1.004,-1.01,0,0,0
0.096,0,0.1,-0.1,0.012,0.01,-1.005,-1.01,0,0,0
0.101,0,0,-0.1,0.012,0.01,-1.005,-1.01,0,0,0
0.107,0,0,-0.3,0.011,0.01,-1.004,-1.01,0,0,0
0.112,0.1,0,-0.2,0.011,0.01,-1.004,-1.01,0,0,0
0.118,0,0.1,-0.3,0.011,0.011,-1.005,-1.01,0,0,0
0.123,0.1,0,-0.2,0.012,0.01,-1.004,-1.01,0,0,0
0.129,0.1,0,-0.1,0.011,0.011,-1.004,-1.01,0,0,0
0.134,0,0.1,-0.1,0.012,0.01,-1.003,-1.01,0,0,0
0.138,0,0,0,0.012,0.011,-1.003,-1.01,0,0,0
0.143,0.1,0.1,-0.1,0.012,0.011,-1.004,-1.01,0,0,0
0.147,0,0,0,0.012,0.011,-1.004,-1.01,0,0,0
0.152,0,0,0,0.012,0.01,-1.004,-1.01,0,0,0
0.156,0,0.2,0.1,0.012,0.01,-1.005,-1.01,0,0,0
0.160,0,0,0.2,0.011,0.01,-1.005,-1.01,0,0,0
0.165,0,0,0.1,0.011,0.01,-1.005,-1.01,0,0,0
0.169,0.1,0,0.2,0.011,0.011,-1.004,-1.01,0,0,0
0.174,0,0,0,0.011,0.011,-1.005,-1.01,0,0,0
0.178,0,0,0.1,0.011,0.011,-1.005,-1.01,0,0,0
0.182,0.1,0,0.1,0.011,0.01,-1.004,-1.01,0,0,0
0.188,0,0,0,0.012,0.011,-1.004,-1,-0.01,0,0
0.194,-0.1,0,0,0.011,0.01,-1.005,-1,-0.01,0,0
0.200,0,0.1,-0.1,0.012,0.009,-1.005,-1,-0.01,0,0
0.206,0,0,-0.1,0.011,0.009,-1.004,-1,-0.01,0,0
0.212,0.1,0.1,-0.2,0.011,0.009,-1.004,-1,-0.01,0,0
0.218,0,0,-0.2,0.01,0.009,-1.005,-1,-0.01,0,0
0.224,0,0,-0.1,0.011,0.011,-1.005,-1,-0.01,0,0
0.230,0.1,-0.1,-0.2,0.011,0.009,-1.005,-1,-0.01,0,0
0.235,0,0,-0.1,0.011,0.011,-1.005,-0.99,-0.01,0,0
0.239,0,0,-0.1,0.011,0.011,-1.004,-0.99,-0.01,0,0
0.243,0,0,-0.1,0.011,0.012,-1.005,-0.99,-0.01,0,0
0.247,0,0,0,0.011,0.011,-1.005,-0.99,-0.01,0,0
0.251,0,0.1,0.1,0.011,0.01,-1.006,-0.99,-0.01,0,0
0.256,0,0,0,0.011,0.011,-1.005,-0.99,-0.01,0,0
0.260,0.1,0,0.1,0.011,0.01,-1.005,-0.99,-0.01,0,0
0.264,0,0,0,0.012,0.009,-1.004,-0.99,-0.01,0,0
0.268,0,0,0.1,0.011,0.01,-1.004,-0.99,-0.01,0,0
0.272,0,0,0.1,0.012,0.011,-1.005,-0.99,-0.01,0,0
0.278,0,0,0.1,0.011,0.011,-1.005,-1,-0.01,0,0
0.284,0,0,0.1,0.011,0.009,-1.005,-1,-0.01,0,0
0.290,0.2,0,0,0.011,0.009,-1.004,-1,-0.01,0,0
0.297,0,0,0,0.011,0.011,-1.004,-1,-0.01,0,0
0.303,0.1,0.1,-0.1,0.012,0.01,-1.005,-1,-0.01,0,0
0.309,0.1,0.1,-0.2,0.011,0.01,-1.005,-1,-0.01,0,0
0.315,0,0.2,-0.1,0.01,0.009,-1.005,-1,-0.01,0,0
0.321,0,0,-0.1,0.01,0.01,-1.004,-1,-0.01,0,0
0.324,0,0,-0.2,0.009,0.009,-1.004,-1.02,-0.02,0,0
0.328,0,0.1,-0.1,0.01,0.011,-1.005,-1.02,-0.02,0,0
0.331,0,0,-0.3,0.011,0.011,-1.004,-1.02,-0.02,0,0
0.334,0,0.1,-0.1,0.011,0.011,-1.004,-1.02,-0.02,0,0
0.338,0,0.1,0,0.01,0.011,-1.005,-1.02,-0.02,0,0
0.341,0,0,0,0.011,0.01,-1.004,-1.02,-0.02,0,0
0.345,0.1,0,0,0.012,0.009,-1.004,-1.02,-0.02,0,0
0.348,0.1,-0.1,0,0.012,0.009,-1.005,-1.02,-0.02,0,0
0.352,0.1,0,0.1,0.011,0.01,-1.004,-1.02,-0.02,0,0
0.355,0,0.1,0.2,0.011,0.01,-1.004,-1.02,-0.02,0,0
0.358,0,0,0.1,0.011,0.01,-1.004,-1.02,-0.02,0,0
0.362,0,0,0.2,0.012,0.01,-1.004,-1.02,-0.02,0,0
0.365,0.1,0,0.1,0.011,0.009,-1.004,-1.02,-0.02,0,0
0.369,0,-0.1,0.1,0.011,0.01,-1.003,-1.02,-0.02,0,0
0.375,0.1,0.1,0,0.011,0.009,-1.003,-1.02,-0.02,0,0
0.382,0,-0.1,-0.1,0.01,0.009,-1.003,-1.02,-0.02,0,0
0.388,0,0,-0.1,0.011,0.01,-1.004,-1.02,-0.02,0,0
0.394,0,0,0,0.011,0.01,-1.004,-1.02,-0.02,0,0
0.401,0.1,0.1,-0.1,0.012,0.011,-1.003,-1.02,-0.02,0,0
0.407,0.1,-0.1,-0.1,0.013,0.01,-1.004,-1.02,-0.02,0,0
0.414,0.1,0.1,-0.2,0.013,0.01,-1.003,-1.02,-0.02,0,0
0.418,0,-0.1,-0.2,0.013,0.011,-1.005,-1.03,-0.02,0,0
0.422,0.2,0.1,-0.3,0.012,0.011,-1.004,-1.03,-0.02,0,0
0.427,0,0,-0.1,0.011,0.009,-1.004,-1.03,-0.02,0,0
0.431,0,0,-0.1,0.011,0.009,-1.003,-1.03,-0.02,0,0
0.435,0,0,0,0.011,0.01,-1.004,-1.03,-0.02,0,0
0.439,0,0,0,0.012,0.009,-1.005,-1.03,-0.02,0,0
0.444,0.1,0,0,0.01,0.009,-1.004,-1.03,-0.02,0,0
0.448,0.1,0,0.1,0.01,0.009,-1.004,-1.03,-0.02,0,0
0.452,0,0,0.1,0.01,0.009,-1.005,-1.03,-0.02,0,0
0.456,0,0,0,0.011,0.01,-1.004,-1.03,-0.02,0,0
0.461,-0.1,0,0.1,0.01,0.01,-1.003,-1.03,-0.02,0,0
0.468,0,0.1,0.1,0.012,0.01,-1.004,-1.03,-0.02,0,0
0.474,0,0.1,0.1,0.012,0.01,-1.004,-1.03,-0.02,0,0
0.481,0,0.1,0,0.012,0.01,-1.005,-1.03,-0.02,0,0
0.488,0,0,0,0.011,0.011,-1.005,-1.03,-0.02,0,0
0.495,-0.1,0,0,0.011,0.009,-1.005,-1.03,-0.02,0,0
0.502,0,0,-0.1,0.011,0.01,-1.005,-1.03,-0.02,0,0
0.509,0.1,0.1,-0.1,0.011,0.01,-1.006,-1.03,-0.02,0,0
0.514,0.1,0.2,-0.1,0.013,0.011,-1.005,-0.98,-0.02,0,0
0.518,0,0,-0.2,0.012,0.009,-1.005,-0.98,-0.02,0,0
0.522,0,0,-0.1,0.012,0.009,-1.006,-0.98,-0.02,0,0
0.527,0,0,-0.1,0.012,0.01,-1.006,-0.98,-0.02,0,0
0.531,0,0.1,-0.1,0.011,0.01,-1.006,-0.98,-0.02,0,0
0.536,-0.1,0,-0.1,0.011,0.01,-1.005,-0.98,-0.02,0,0
0.540,0,0.1,0,0.012,0.01,-1.005,-0.98,-0.02,0,0
0.545,0.1,0.1,0,0.011,0.009,-1.005,-0.98,-0.02,0,0
0.549,0,0,0,0.01,0.009,-1.005,-0.98,-0.02,0,0
0.553,-0.1,0,0,0.01,0.011,-1.004,-0.98,-0.02,0,0
0.558,0.1,0,0,0.009,0.01,-1.004,-0.98,-0.02,0,0
0.565,0,0,0.1,0.011,0.011,-1.005,-0.95,-0.02,0,0
0.571,0,0,0.1,0.011,0.011,-1.005,-0.95,-0.02,0,0
0.578,0.1,0,0.2,0.011,0.01,-1.005,-0.95,-0.02,0,0
0.585,0.1,0,0.1,0.012,0.011,-1.004,-0.95,-0.02,0,0
0.592,0,0,0.1,0.011,0.01,-1.004,-0.95,-0.02,0,0
0.599,0,0,0,0.011,0.01,-1.004,-0.95,-0.02,0,0
0.606,-0.1,0,0,0.011,0.01,-1.004,-0.95,-0.02,0,0
0.610,0.1,0,0,0.01,0.011,-1.005,-0.94,-0.02,0,0
0.613,0,0,-0.1,0.01,0.011,-1.005,-0.94,-0.02,0,0
0.617,0,0.1,-0.2,0.009,0.01,-1.005,-0.94,-0.02,0,0
0.621,0,0,-0.1,0.011,0.009,-1.005,-0.94,-0.02,0,0
0.625,0,0,-0.3,0.012,0.009,-1.005,-0.94,-0.02,0,0
0.629,0,0,-0.1,0.011,0.009,-1.005,-0.94,-0.02,0,0
0.632,0,0.1,-0.2,0.011,0.01,-1.005,-0.94,-0.02,0,0
0.636,0.1,0,0,0.012,0.01,-1.005,-0.94,-0.02,0,0
0.640,0,0.1,-0.1,0.012,0.01,-1.004,-0.94,-0.02,0,0
0.644,0.1,0.2,-0.1,0.012,0.009,-1.004,-0.94,-0.02,0,0
0.648,0.2,0,0,0.013,0.008,-1.004,-0.94,-0.02,0,0
0.655,0,0,0,0.011,0.009,-1.003,-0.95,-0.02,0,0
0.662,0,0,0,0.011,0.01,-1.002,-0.95,-0.02,0,0
0.669,0,0,0,0.011,0.01,-1.002,-0.95,-0.02,0,0
0.675,0,0,0,0.012,0.01,-1.002,-0.95,-0.02,0,0
0.682,0,0,0,0.012,0.01,-1.005,-0.95,-0.02,0,0
0.689,0,0.1,0.1,0.011,0.011,-1.005,-0.95,-0.02,0,0
0.696,0,0.1,0.2,0.011,0.012,-1.004,-0.95,-0.02,0,0
0.701,0,0,0.1,0.013,0.01,-1.004,-0.91,-0.02,0,0
0.705,0,-0.1,0,0.011,0.01,-1.004,-0.91,-0.02,0,0
0.710,0,0,0,0.012,0.011,-1.004,-0.91,-0.02,0,0
0.714,0,0,-0.1,0.012,0.011,-1.003,-0.91,-0.02,0,0
0.718,0,0,0,0.012,0.01,-1.003,-0.91,-0.02,0,0
0.723,0,0.1,-0.1,0.011,0.011,-1.003,-0.91,-0.02,0,0
0.727,0,0,-0.2,0.011,0.011,-1.002,-0.91,-0.02,0,0
0.732,0.1,-0.1,-0.1,0.01,0.011,-1.002,-0.91,-0.02,0,0
0.736,0,0,-0.1,0.01,0.011,-1.002,-0.91,-0.02,0,0
0.740,0,0.1,-0.1,0.011,0.011,-1.002,-0.91,-0.02,0,0
0.745,0.1,0,-0.1,0.011,0.011,-1.003,-0.91,-0.02,0,0
0.749,0,0,0,0.012,0.01,-1.002,-0.85,-0.02,0,0
0.753,0,0.1,0,0.011,0.011,-1.002,-0.85,-0.02,0,0
0.757,0,0,0,0.012,0.01,-1.003,-0.85,-0.02,0,0
0.761,0,0,0,0.011,0.01,-1.003,-0.85,-0.02,0,0
0.765,0,0,0.1,0.012,0.01,-1.003,-0.85,-0.02,0,0
0.769,0,-0.1,0.2,0.011,0.01,-1.003,-0.85,-0.02,0,0
0.772,0,0.1,0,0.01,0.009,-1.003,-0.85,-0.02,0,0
0.776,0,0,0.1,0.012,0.01,-1.003,-0.85,-0.02,0,0
0.780,0,0,0,0.011,0.011,-1.004,-0.85,-0.02,0,0
0.784,0,0.1,0,0.011,0.011,-1.004,-0.85,-0.02,0,0
0.788,0.1,0,0.1,0.012,0.01,-1.004,-0.85,-0.02,0,0
0.792,0,0.1,-0.1,0.012,0.01,-1.003,-0.85,-0.02,0,0
0.799,-0.1,0,-0.1,0.012,0.01,-1.003,-0.84,-0.02,0,0
0.806,0.1,0,0,0.011,0.01,-1.005,-0.84,-0.02,0,0
0.814,0.1,0,-0.1,0.011,0.009,-1.005,-0.84,-0.02,0,0
0.821,0,0.1,-0.1,0.01,0.01,-1.006,-0.84,-0.02,0,0
0.828,0.2,0,0,0.012,0.01,-1.005,-0.84,-0.02,0,0
0.835,0.1,-0.1,-0.3,0.012,0.011,-1.005,-0.84,-0.02,0,0
0.839,-0.1,0,-0.1,0.011,0.01,-1.005,-0.84,-0.02,0,0
0.842,0,0,0,0.011,0.01,-1.004,-0.84,-0.02,0,0
0.846,0,0.1,-0.1,0.011,0.009,-1.004,-0.84,-0.02,0,0
0.850,0,0.1,0.1,0.011,0.009,-1.005,-0.84,-0.02,0,0
0.854,0.1,0.1,0,0.011,0.01,-1.004,-0.84,-0.02,0,0
0.857,0.1,0,0,0.012,0.011,-1.005,-0.84,-0.02,0,0
0.861,0,-0.1,0,0.011,0.011,-1.005,-0.84,-0.02,0,0
0.865,0.1,0.1,0.1,0.011,0.01,-1.005,-0.84,-0.02,0,0
0.868,0,0.1,0.1,0.012,0.01,-1.005,-0.84,-0.02,0,0
0.872,0.1,0,0,0.013,0.01,-1.005,-0.84,-0.02,0,0
0.876,0,0,0.1,0.012,0.01,-1.005,-0.84,-0.02,0,0
0.880,0,0,0.1,0.012,0.01,-1.005,-0.84,-0.02,0,0
0.883,0.1,0,0,0.012,0.011,-1.005,-0.84,-0.02,0,0
0.889,0,0,0,0.01,0.011,-1.006,-0.89,-0.02,0,0
0.895,0,0,-0.1,0.01,0.011,-1.006,-0.89,-0.02,0,0
0.900,0,0,-0.1,0.01,0.011,-1.004,-0.89,-0.02,0,0
0.906,0,0,-0.1,0.01,0.01,-1.004,-0.89,-0.02,0,0
0.912,-0.1,0.1,-0.1,0.011,0.01,-1.005,-0.89,-0.02,0,0
0.917,0.1,0,0,0.012,0.01,-1.005,-0.89,-0.02,0,0
0.923,0,0,-0.1,0.011,0.01,-1.005,-0.89,-0.02,0,0
0.929,-0.1,0,-0.2,0.011,0.01,-1.006,-0.89,-0.02,0,0
0.935,0,0,-0.1,0.011,0.011,-1.007,-0.88,-0.02,0,0
0.942,0,0.1,-0.1,0.011,0.01,-1.007,-0.88,-0.02,0,0
0.948,0,0,-0.1,0.011,0.011,-1.006,-0.88,-0.02,0,0
0.955,0.1,0.1,0,0.011,0.011,-1.005,-0.88,-0.02,0,0
0.962,0,0,0,0.011,0.011,-1.005,-0.88,-0.02,0,0
0.968,0.1,0,0,0.011,0.01,-1.005,-0.88,-0.02,0,0
0.975,0,0,0,0.011,0.01,-1.006,-0.88,-0.02,0,0
0.981,0,0,0.1,0.01,0.01,-1.005,-0.88,-0.02,0,0
0.986,0.1,0,0,0.011,0.01,-1.005,-0.9,-0.02,0,0
0.990,0,0,0,0.01,0.01,-1.005,-0.9,-0.02,0,0
0.994,0,0.1,0.1,0.011,0.01,-1.005,-0.9,-0.02,0,0
0.999,0.1,0,0,0.012,0.009,-1.005,-0.9,-0.02,0,0
1.003,0,0,0.1,0.012,0.01,-1.005,-0.9,-0.02,0,0
1.007,0.1,0,0,0.012,0.009,-1.005,-0.9,-0.02,0,0
1.012,0,0.1,-0.1,0.011,0.01,-1.006,-0.9,-0.02,0,0
1.016,-0.1,0.1,0,0.011,0.01,-1.006,-0.9,-0.02,0,0
1.020,0,0,0,0.011,0.009,-1.006,-0.9,-0.02,0,0
1.025,0,0,-0.1,0.011,0.009,-1.006,-0.9,-0.02,0,0
1.031,0.1,0,0,0.011,0.008,-1.006,-0.93,-0.02,0,0
1.037,0.1,0,-0.1,0.011,0.01,-1.005,-0.93,-0.02,0,0
1.043,0.1,0,-0.1,0.011,0.011,-1.005,-0.93,-0.02,0,0
1.049,0,0,0,0.01,0.012,-1.005,-0.93,-0.02,0,0
1.054,0,0.1,0,0.012,0.012,-1.005,-0.93,-0.02,0,0
1.060,0.1,0.1,0,0.011,0.012,-1.004,-0.93,-0.02,0,0
1.066,0.1,0.1,0,0.011,0.011,-1.005,-0.93,-0.02,0,0
1.072,0,0,0,0.012,0.011,-1.005,-0.93,-0.02,0,0
1.078,0,0,0,0.011,0.011,-1.006,-0.94,-0.02,0,0
1.083,0.1,0.1,0.2,0.011,0.011,-1.005,-0.94,-0.02,0,0
1.088,0.1,0,0.1,0.011,0.01,-1.006,-0.94,-0.02,0,0
1.094,0,0,0,0.011,0.01,-1.005,-0.94,-0.02,0,0
1.099,-0.1,0.1,0,0.011,0.01,-1.005,-0.94,-0.02,0,0
1.105,0,0,0.1,0.01,0.01,-1.004,-0.94,-0.02,0,0
1.110,0,0,0.1,0.011,0.011,-1.004,-0.94,-0.02,0,0
1.116,0,-0.1,0,0.011,0.011,-1.005,-0.94,-0.02,0,0
1.121,0,0,-0.1,0.01,0.011,-1.006,-0.94,-0.02,0,0
1.124,0,0.1,0,0.012,0.01,-1.006,-0.95,-0.02,0,0
1.128,0,0,-0.1,0.011,0.01,-1.005,-0.95,-0.02,0,0
1.131,0,0.1,0,0.011,0.01,-1.006,-0.95,-0.02,0,0
1.134,0.1,0,-0.1,0.011,0.01,-1.006,-0.95,-0.02,0,0
1.137,-0.1,0,-0.1,0.011,0.009,-1.005,-0.95,-0.02,0,0
1.141,0,-0.1,-0.1,0.011,0.01,-1.006,-0.95,-0.02,0,0
1.144,0,0.1,-0.2,0.011,0.01,-1.005,-0.95,-0.02,0,0
1.147,0,0.1,0,0.011,0.01,-1.005,-0.95,-0.02,0,0
1.150,0,0,0,0.012,0.009,-1.006,-0.95,-0.02,0,0
1.154,0.1,0.1,-0.1,0.011,0.01,-1.006,-0.95,-0.02,0,0
1.157,0.2,0,0.1,0.012,0.009,-1.005,-0.95,-0.02,0,0
1.160,0,0.1,0,0.01,0.01,-1.006,-0.95,-0.02,0,0
1.164,0.1,0,0,0.011,0.009,-1.006,-0.95,-0.02,0,0
1.167,0,0,0,0.011,0.01,-1.005,-0.95,-0.02,0,0
1.170,0.1,0,0,0.011,0.01,-1.005,-0.95,-0.02,0,0
1.184,0.1,0,0.1,0.01,0.01,-1.005,-0.94,-0.01,0,0
1.197,0.1,0,0,0.011,0.01,-1.005,-0.94,-0.01,0,0
1.211,0,0,0,0.013,0.01,-1.005,-0.94,-0.01,0,0
1.215,0,0,0,0.012,0.01,-1.005,-0.92,-0.01,0,0
1.220,0.1,0.1,0,0.011,0.01,-1.005,-0.92,-0.01,0,0
1.224,0,0,0,0.011,0.011,-1.005,-0.92,-0.01,0,0
1.228,0.1,0.1,-0.1,0.012,0.011,-1.005,-0.92,-0.01,0,0
1.233,0,0,-0.2,0.012,0.011,-1.005,-0.92,-0.01,0,0
1.237,0,0.1,-0.1,0.012,0.01,-1.004,-0.92,-0.01,0,0
1.242,0,0,0,0.011,0.01,-1.005,-0.92,-0.01,0,0
1.246,0.1,0,-0.1,0.011,0.011,-1.005,-0.92,-0.01,0,0
1.250,0,0,0,0.011,0.01,-1.005,-0.92,-0.01,0,0
1.255,0,0,-0.1,0.012,0.009,-1.004,-0.92,-0.01,0,0
1.259,0.1,0.2,-0.1,0.011,0.01,-1.006,-0.92,-0.01,0,0
1.263,0,-0.1,-0.1,0.011,0.01,-1.006,-0.89,-0.01,0,0
1.267,0,0.1,0,0.01,0.01,-1.005,-0.89,-0.01,0,0
1.272,0,0,0,0.011,0.01,-1.005,-0.89,-0.01,0,0
1.276,0.1,0,0,0.011,0.01,-1.004,-0.89,-0.01,0,0
1.280,0,0,0,0.012,0.011,-1.005,-0.89,-0.01,0,0
1.284,0,0.1,0,0.012,0.01,-1.005,-0.89,-0.01,0,0
1.288,0.1,0,0,0.011,0.01,-1.004,-0.89,-0.01,0,0
1.293,0,0,0,0.011,0.01,-1.005,-0.89,-0.01,0,0
1.297,0.1,0,0,0.01,0.009,-1.004,-0.89,-0.01,0,0
1.301,0,0,0,0.011,0.01,-1.004,-0.89,-0.01,0,0
1.305,0,0,0,0.011,0.01,-1.004,-0.89,-0.01,0,0
1.309,0,0.1,0,0.011,0.01,-1.006,-0.84,-0.01,0,0
1.314,0.1,0,-0.1,0.011,0.01,-1.006,-0.84,-0.01,0,0
1.318,0,0,0,0.01,0.009,-1.005,-0.84,-0.01,0,0
1.322,0,0,-0.1,0.009,0.01,-1.005,-0.84,-0.01,0,0
1.326,0,0,0,0.01,0.01,-1.005,-0.84,-0.01,0,0
1.330,0.1,0.1,-0.1,0.01,0.009,-1.006,-0.84,-0.01,0,0
1.334,0,0.1,0,0.01,0.01,-1.006,-0.84,-0.01,0,0
1.338,0.1,0,-0.1,0.012,0.01,-1.005,-0.84,-0.01,0,0
1.342,0,0,0,0.012,0.01,-1.004,-0.84,-0.01,0,0
1.347,0,0.1,-0.1,0.012,0.011,-1.005,-0.84,-0.01,0,0
1.351,0.2,0,0,0.012,0.01,-1.004,-0.84,-0.01,0,0
1.357,0,0,0.1,0.011,0.01,-1.005,-0.82,-0.01,0,0
1.364,0.1,0,0,0.01,0.01,-1.005,-0.82,-0.01,0,0
1.371,0,0,0,0.011,0.009,-1.005,-0.82,-0.01,0,0
1.378,0,0,0,0.012,0.009,-1.006,-0.82,-0.01,0,0
1.385,0,0,-0.1,0.011,0.009,-1.005,-0.82,-0.01,0,0
1.391,0,0,0.1,0.012,0.01,-1.005,-0.82,-0.01,0,0
1.398,0,0,-0.1,0.012,0.01,-1.005,-0.82,-0.01,0,0
1.403,0,0,0,0.012,0.011,-1.005,-0.84,-0.01,0,0
1.407,0,0,0,0.011,0.01,-1.006,-0.84,-0.01,0,0
1.411,0,0,-0.1,0.011,0.011,-1.006,-0.84,-0.01,0,0
1.416,0,0,0,0.012,0.01,-1.006,-0.84,-0.01,0,0
1.420,0,0,0,0.011,0.01,-1.005,-0.84,-0.01,0,0
1.425,0,0,0,0.01,0.011,-1.005,-0.84,-0.01,0,0
1.429,0.1,0.1,-0.1,0.011,0.01,-1.004,-0.84,-0.01,0,0
1.433,0,0.1,0,0.012,0.009,-1.005,-0.84,-0.01,0,0
1.438,0,0,-0.1,0.011,0.01,-1.005,-0.84,-0.01,0,0
1.442,0,0,0,0.011,0.01,-1.005,-0.84,-0.01,0,0
1.447,0.1,0,-0.1,0.011,0.01,-1.005,-0.84,-0.01,0,0
1.454,0.1,0,0,0.011,0.011,-1.004,-0.87,-0.01,0,0
1.461,0.1,-0.1,0,0.012,0.01,-1.005,-0.87,-0.01,0,0
1.467,0,0,0.1,0.012,0.01,-1.005,-0.87,-0.01,0,0
1.474,0,0.2,0,0.012,0.01,-1.005,-0.87,-0.01,0,0
1.481,0,0.1,0,0.012,0.01,-1.005,-0.87,-0.01,0,0
1.488,0,0,0,0.011,0.01,-1.005,-0.87,-0.01,0,0
1.495,0,0,0,0.01,0.009,-1.005,-0.87,-0.01,0,0
1.500,0,0.1,0,0.009,0.01,-1.004,-0.88,-0.01,0,0
1.504,0,0,0,0.011,0.01,-1.004,-0.88,-0.01,0,0
1.509,0.2,0,0,0.012,0.011,-1.003,-0.88,-0.01,0,0
1.513,0,0,0,0.011,0.009,-1.004,-0.88,-0.01,0,0
1.518,-0.1,0,0,0.01,0.01,-1.005,-0.88,-0.01,0,0
1.522,0,-0.1,0,0.011,0.01,-1.005,-0.88,-0.01,0,0
1.527,0,0,0,0.012,0.01,-1.004,-0.88,-0.01,0,0
1.531,0.1,0.1,-0.1,0.012,0.01,-1.003,-0.88,-0.01,0,0
1.536,0,0,-0.1,0.011,0.01,-1.003,-0.88,-0.01,0,0
1.540,0,0,0,0.011,0.009,-1.004,-0.88,-0.01,0,0
1.545,0,0.1,-0.1,0.011,0.01,-1.004,-0.88,-0.01,0,0
1.551,0,0.1,0,0.012,0.009,-1.003,-0.88,-0.01,0,0
1.557,0,0.1,0,0.011,0.01,-1.003,-0.88,-0.01,0,0
1.563,0.1,0,0.1,0.012,0.009,-1.004,-0.88,-0.01,0,0
1.569,0,0,0,0.012,0.009,-1.002,-0.88,-0.01,0,0
1.575,0,0,0,0.012,0.009,-1.003,-0.88,-0.01,0,0
1.581,0,0,0,0.012,0.009,-1.003,-0.88,-0.01,0,0
1.587,0.1,0.1,0,0.012,0.009,-1.004,-0.88,-0.01,0,0
1.591,0,0,0,0.011,0.009,-1.003,-0.88,-0.01,0,0
1.596,0,0,0.1,0.011,0.009,-1.002,-0.88,-0.01,0,0
1.601,0,0,0,0.01,0.01,-1.002,-0.88,-0.01,0,0
1.606,0,0,0.1,0.011,0.01,-1.002,-0.88,-0.01,0,0
1.611,0,-0.1,0,0.011,0.01,-1.001,-0.88,-0.01,0,0
1.615,0,0,0,0.011,0.01,-1.001,-0.88,-0.01,0,0
1.620,0,0.1,-0.1,0.011,0.011,-1.003,-0.88,-0.01,0,0
1.625,0,0.1,-0.1,0.012,0.011,-1.002,-0.88,-0.01,0,0
1.630,0,0,0,0.011,0.011,-1.005,-0.88,-0.01,0,0
1.635,0,0,0,0.012,0.011,-1.004,-0.88,-0.01,0,0
1.641,0,-0.1,0,0.011,0.012,-1.003,-0.89,-0.01,0,0
1.647,0,0,0,0.011,0.011,-1.004,-0.89,-0.01,0,0
1.653,0,0.1,0,0.01,0.011,-1.003,-0.89,-0.01,0,0
1.659,0,0,-0.1,0.011,0.01,-1.003,-0.89,-0.01,0,0
1.665,0,0.1,0,0.01,0.011,-1.003,-0.89,-0.01,0,0
1.671,0,0,0,0.011,0.011,-1.002,-0.89,-0.01,0,0
1.677,0.1,0,0,0.011,0.01,-1.002,-0.89,-0.01,0,0
1.684,0.1,0.1,0.1,0.011,0.01,-1.001,-0.89,-0.01,0,0
1.687,0,0,0,0.01,0.011,-1.002,-0.86,-0.01,0,0
1.690,0,-0.1,0,0.011,0.01,-1.002,-0.86,-0.01,0,0
1.694,0.1,0.1,0,0.011,0.01,-1.003,-0.86,-0.01,0,0
1.697,0.1,0,-0.1,0.012,0.01,-1.003,-0.86,-0.01,0,0
1.700,0,0,0,0.01,0.011,-1.003,-0.86,-0.01,0,0
1.704,0,0,0,0.011,0.01,-1.003,-0.86,-0.01,0,0
1.707,0,0.1,0,0.011,0.011,-1.002,-0.86,-0.01,0,0
1.710,0.1,0,0,0.011,0.011,-1.003,-0.86,-0.01,0,0
1.714,0.2,0,0,0.012,0.01,-1.003,-0.86,-0.01,0,0
1.717,0,0,-0.1,0.011,0.01,-1.004,-0.86,-0.01,0,0
1.720,0.1,0,-0.1,0.012,0.01,-1.004,-0.86,-0.01,0,0
1.724,0,0,-0.1,0.011,0.01,-1.004,-0.86,-0.01,0,0
1.727,0,0.1,-0.1,0.012,0.009,-1.003,-0.86,-0.01,0,0
1.731,0,0.1,0,0.013,0.009,-1.003,-0.86,-0.01,0,0
1.741,0,0,0,0.012,0.007,-1.004,-0.86,-0.01,0,0
1.752,0,0,0,0.012,0.01,-1.003,-0.86,-0.01,0,0
1.763,0,0,0,0.011,0.009,-1.003,-0.86,-0.01,0,0
1.773,0,0,0,0.011,0.009,-1.003,-0.86,-0.01,0,0
1.777,0,0,0,0.012,0.01,-1.004,-0.81,-0.01,0,0
1.780,0,0,0,0.013,0.011,-1.004,-0.81,-0.01,0,0
1.784,0.1,0,0,0.012,0.01,-1.004,-0.81,-0.01,0,0
1.787,-0.1,0,0,0.011,0.011,-1.003,-0.81,-0.01,0,0
1.791,0,0,0,0.009,0.011,-1.002,-0.81,-0.01,0,0
1.794,0.1,0,0,0.011,0.009,-1.003,-0.81,-0.01,0,0
1.797,0,0,0,0.011,0.01,-1.003,-0.81,-0.01,0,0
1.801,0.1,0,-0.1,0.012,0.009,-1.004,-0.81,-0.01,0,0
1.804,0,0,0.1,0.012,0.009,-1.004,-0.81,-0.01,0,0
1.808,0,0,0.1,0.011,0.009,-1.004,-0.81,-0.01,0,0
1.811,0,0.1,0,0.011,0.01,-1.003,-0.81,-0.01,0,0
1.814,0,0.1,0,0.012,0.01,-1.004,-0.81,-0.01,0,0
1.818,0,0,-0.1,0.011,0.01,-1.003,-0.81,-0.01,0,0
1.821,0.2,0.1,-0.1,0.01,0.009,-1.004,-0.81,-0.01,0,0
1.828,0,0.1,0,0.011,0.011,-1.003,-0.79,-0.01,0,0
1.834,0,0,0,0.011,0.011,-1.004,-0.79,-0.01,0,0
1.841,0,0,-0.1,0.011,0.01,-1.004,-0.79,-0.01,0,0
1.847,0,0.1,0,0.012,0.01,-1.003,-0.79,-0.01,0,0
1.853,0,0.1,0.1,0.012,0.009,-1.003,-0.79,-0.01,0,0
1.860,0.1,0,0,0.012,0.011,-1.003,-0.79,-0.01,0,0
1.866,0.1,0.1,0,0.011,0.011,-1.002,-0.79,-0.01,0,0
1.871,0,0,0,0.01,0.01,-1.002,-0.78,-0.01,0,0
1.876,0,0.1,0.1,0.011,0.009,-1.002,-0.78,-0.01,0,0
1.880,0,0.1,0,0.011,0.008,-1.002,-0.78,-0.01,0,0
1.885,0,0,0,0.011,0.009,-1.002,-0.78,-0.01,0,0
1.890,0.1,0,0,0.012,0.009,-1.002,-0.78,-0.01,0,0
1.895,0.1,0,0,0.012,0.01,-1.003,-0.78,-0.01,0,0
1.900,0,0,0,0.011,0.01,-1.003,-0.78,-0.01,0,0
1.904,0,0,0,0.011,0.01,-1.004,-0.78,-0.01,0,0
1.909,0,0,0,0.011,0.01,-1.004,-0.78,-0.01,0,0
1.914,0,0,-0.1,0.011,0.009,-1.005,-0.78,-0.01,0,0
1.919,0,-0.1,-0.1,0.011,0.01,-1.005,-0.78,-0.01,0,0
1.924,0,0,0,0.01,0.011,-1.004,-0.78,-0.01,0,0
1.929,0,0,0,0.011,0.01,-1.004,-0.78,-0.01,0,0
1.934,0,0.1,-0.1,0.009,0.01,-1.004,-0.78,-0.01,0,0
1.940,0,0,0,0.01,0.01,-1.004,-0.78,-0.01,0,0
1.945,0,0,0,0.011,0.01,-1.002,-0.78,-0.01,0,0
1.950,0,0,-0.1,0.011,0.01,-1.003,-0.78,-0.01,0,0
1.956,0,0.1,0,0.012,0.01,-1.002,-0.78,-0.01,0,0
1.961,0,0.1,0,0.011,0.01,-1.002,-0.78,-0.01,0,0
1.966,0,0,0,0.01,0.01,-1.002,-0.77,-0.01,0,0
1.971,-0.1,0,-0.1,0.011,0.011,-1.002,-0.77,-0.01,0,0
1.975,0,0,0,0.011,0.011,-1.002,-0.77,-0.01,0,0
1.980,0.1,0.1,0,0.012,0.01,-1.002,-0.77,-0.01,0,0
1.985,0,0,0,0.011,0.011,-1.002,-0.77,-0.01,0,0
1.990,0,-0.1,0,0.012,0.01,-1.002,-0.77,-0.01,0,0
1.995,0.1,0,0,0.012,0.01,-1.002,-0.77,-0.01,0,0
2.000,0,0,0.1,0.011,0.011,-1.002,-0.77,-0.01,0,0
2.004,0.1,0,0,0.011,0.012,-1.002,-0.77,-0.01,0,0
2.009,0.1,0,0,0.011,0.01,-1.002,-0.77,-0.01,0,0
2.014,0.1,0,0,0.011,0.01,-1.002,-0.76,-0.01,0,0
2.019,0,0,-0.2,0.011,0.01,-1.003,-0.76,-0.01,0,0
2.024,0,0,0,0.013,0.009,-1.002,-0.76,-0.01,0,0
2.029,0,0,-0.1,0.013,0.009,-1.003,-0.76,-0.01,0,0
2.033,0,0,-0.1,0.011,0.01,-1.003,-0.76,-0.01,0,0
2.038,0,0,-0.1,0.01,0.01,-1.003,-0.76,-0.01,0,0
2.043,0.1,0,-0.2,0.011,0.01,-1.003,-0.76,-0.01,0,0
2.048,0.1,0,-0.1,0.01,0.009,-1.003,-0.76,-0.01,0,0
2.053,0.1,0,-0.1,0.011,0.01,-1.003,-0.76,-0.01,0,0
2.058,-0.1,0.1,-0.1,0.011,0.009,-1.004,-0.76,-0.01,0,0
2.064,0.1,0,0,0.012,0.01,-1.004,-0.76,-0.01,0,0
2.070,0,0,-0.1,0.011,0.01,-1.004,-0.76,-0.01,0,0
2.076,0,0.1,0.1,0.012,0.011,-1.004,-0.76,-0.01,0,0
2.082,0,0,-0.1,0.012,0.01,-1.003,-0.76,-0.01,0,0
2.088,0,0.1,0.1,0.01,0.011,-1.003,-0.76,-0.01,0,0
2.094,0,0,0.2,0.01,0.012,-1.003,-0.76,-0.01,0,0
2.100,0,0,0.1,0.01,0.011,-1.003,-0.76,-0.01,0,0
2.106,0,0,0,0.01,0.011,-1.004,-0.76,-0.01,0,0
2.110,0,0,0,0.009,0.011,-1.004,-0.77,-0.01,0,0
2.115,-0.1,0,0,0.01,0.01,-1.004,-0.77,-0.01,0,0
2.119,0,0.1,-0.1,0.011,0.01,-1.004,-0.77,-0.01,0,0
2.123,-0.1,0,0,0.013,0.009,-1.003,-0.77,-0.01,0,0
2.127,0.1,0,-0.1,0.012,0.009,-1.003,-0.77,-0.01,0,0
2.131,0,0,0,0.013,0.011,-1.002,-0.77,-0.01,0,0
2.135,0.1,0,0,0.012,0.009,-1.003,-0.77,-0.01,0,0
2.139,0,0.1,0,0.011,0.01,-1.003,-0.77,-0.01,0,0
2.144,-0.1,0,-0.1,0.012,0.01,-1.003,-0.77,-0.01,0,0
2.148,0,0,-0.1,0.011,0.01,-1.002,-0.77,-0.01,0,0
2.155,0,0,0,0.012,0.01,-1.002,-0.79,-0.01,0,0
2.162,0,0.1,0.1,0.012,0.011,-1.002,-0.79,-0.01,0,0
2.169,-0.1,0,-0.1,0.012,0.011,-1.003,-0.79,-0.01,0,0
2.176,0,0.1,0,0.011,0.011,-1.003,-0.79,-0.01,0,0
2.183,0,-0.1,0,0.011,0.01,-1.002,-0.79,-0.01,0,0
2.190,0.1,0,0,0.011,0.011,-1.003,-0.79,-0.01,0,0
2.197,0,0,0,0.011,0.01,-1.003,-0.79,-0.01,0,0
2.200,0,0,0,0.012,0.01,-1.003,-0.85,-0.01,0,0
2.203,0,0,0,0.012,0.009,-1.002,-0.85,-0.01,0,0
2.206,-0.1,0.1,-0.1,0.013,0.011,-1.002,-0.85,-0.01,0,0
2.209,0.1,0,0.1,0.011,0.009,-1.001,-0.85,-0.01,0,0
2.213,0,0,-0.1,0.01,0.011,-1.002,-0.85,-0.01,0,0
2.216,0,0,0,0.01,0.011,-1.003,-0.85,-0.01,0,0
2.219,0.1,0,0,0.011,0.011,-1.002,-0.85,-0.01,0,0
2.222,0,0.1,0,0.012,0.009,-1.003,-0.85,-0.01,0,0
2.225,0,0,-0.1,0.011,0.01,-1.003,-0.85,-0.01,0,0
2.228,-0.2,0,0,0.012,0.01,-1.004,-0.85,-0.01,0,0
2.232,0,0,-0.1,0.011,0.009,-1.005,-0.85,-0.01,0,0
2.235,0,0.1,0,0.011,0.01,-1.004,-0.85,-0.01,0,0
2.238,0,0.1,-0.1,0.011,0.011,-1.005,-0.85,-0.01,0,0
2.241,0,0.1,0,0.01,0.01,-1.005,-0.85,-0.01,0,0
2.244,0,0.1,0,0.01,0.009,-1.005,-0.85,-0.01,0,0
2.251,0,0,0,0.01,0.009,-1.005,-0.86,-0.01,0,0
2.257,0,0,-0.1,0.011,0.009,-1.004,-0.86,-0.01,0,0
2.264,0,-0.1,0.1,0.01,0.011,-1.005,-0.86,-0.01,0,0
2.270,0.1,0,0.1,0.01,0.011,-1.005,-0.86,-0.01,0,0
2.276,0,0,0,0.011,0.01,-1.005,-0.86,-0.01,0,0
2.283,0.1,0,0,0.012,0.009,-1.003,-0.86,-0.01,0,0
2.289,0.1,0,0,0.012,0.01,-1.004,-0.86,-0.01,0,0
2.293,0.1,0,0.1,0.011,0.01,-1.004,-0.84,-0.01,0,0
2.298,0.1,0.1,0,0.012,0.01,-1.005,-0.84,-0.01,0,0
2.302,0.1,0,0,0.011,0.01,-1.004,-0.84,-0.01,0,0
2.306,0,0,0,0.012,0.01,-1.004,-0.84,-0.01,0,0
2.311,0.1,0.1,0,0.012,0.011,-1.003,-0.84,-0.01,0,0
2.315,0,0,0,0.01,0.01,-1.004,-0.84,-0.01,0,0
2.319,0,0.1,-0.2,0.011,0.009,-1.004,-0.84,-0.01,0,0
2.323,0.1,0,0,0.011,0.011,-1.004,-0.84,-0.01,0,0
2.328,0,0.1,-0.1,0.011,0.01,-1.003,-0.84,-0.01,0,0
2.332,0,0,-0.2,0.01,0.01,-1.004,-0.84,-0.01,0,0
2.336,0,0,-0.1,0.01,0.01,-1.004,-0.84,-0.01,0,0
2.343,0,0,-0.1,0.01,0.01,-1.003,-0.83,-0.01,0,0
2.350,0,0.1,-0.1,0.011,0.011,-1.004,-0.83,-0.01,0,0
2.357,0,0,0,0.011,0.011,-1.003,-0.83,-0.01,0,0
2.364,0,0,0,0.01,0.01,-1.002,-0.83,-0.01,0,0
2.371,0,0,0,0.012,0.011,-1.004,-0.83,-0.01,0,0
2.377,0,0,0,0.011,0.011,-1.004,-0.83,-0.01,0,0
2.384,0,0,0,0.012,0.011,-1.004,-0.83,-0.01,0,0
2.389,0.1,0,0.1,0.01,0.011,-1.004,-0.81,-0.01,0,0
2.393,0,0.1,0,0.011,0.01,-1.003,-0.81,-0.01,0,0
2.397,0,0.1,-0.1,0.011,0.01,-1.004,-0.81,-0.01,0,0
2.402,0,0,0,0.011,0.01,-1.003,-0.81,-0.01,0,0
2.406,-0.1,0,0,0.011,0.011,-1.004,-0.81,-0.01,0,0
2.411,0,0.1,0,0.011,0.01,-1.003,-0.81,-0.01,0,0
2.415,0,-0.1,0,0.01,0.01,-1.003,-0.81,-0.01,0,0
2.419,0.1,-0.1,0,0.011,0.01,-1.004,-0.81,-0.01,0,0
2.424,0,0,-0.1,0.012,0.01,-1.005,-0.81,-0.01,0,0
2.428,0,0,0,0.011,0.011,-1.003,-0.81,-0.01,0,0
2.433,0,0,0,0.011,0.011,-1.003,-0.81,-0.01,0,0
2.440,0.2,0,-0.1,0.012,0.01,-1.003,-0.8,-0.01,0,0
2.447,0,0.1,0,0.013,0.01,-1.003,-0.8,-0.01,0,0
2.453,-0.1,0,0,0.012,0.01,-1.003,-0.8,-0.01,0,0
2.460,0,0,0,0.011,0.011,-1.003,-0.8,-0.01,0,0
2.467,0,0,0,0.011,0.01,-1.003,-0.8,-0.01,0,0
2.474,0,0.1,0.1,0.012,0.01,-1.004,-0.8,-0.01,0,0
2.481,-0.1,0,-0.1,0.011,0.01,-1.003,-0.8,-0.01,0,0
2.485,0,0,0,0.01,0.011,-1.003,-0.8,-0.01,0,0
2.489,0.2,0,0.1,0.011,0.01,-1.002,-0.8,-0.01,0,0
2.493,0,0,0.1,0.012,0.01,-1.002,-0.8,-0.01,0,0
2.497,0,0,0,0.011,0.009,-1.001,-0.8,-0.01,0,0
2.500,0.1,0,0.1,0.011,0.009,-1.001,-0.8,-0.01,0,0
2.504,0.1,0,0,0.012,0.01,-1.001,-0.8,-0.01,0,0
2.508,0.1,0,0.1,0.01,0.01,-1.001,-0.8,-0.01,0,0
2.512,-0.1,0,-0.1,0.012,0.009,-1.002,-0.8,-0.01,0,0
2.515,0,0.1,-0.1,0.011,0.009,-1.003,-0.8,-0.01,0,0
2.519,0,0,-0.1,0.012,0.009,-1.002,-0.8,-0.01,0,0
2.523,0.9,-0.1,0,0.01,0.009,-1.001,-0.8,-0.01,0,0
2.530,1.2,0,0.3,0.01,0.011,-1.002,-0.83,-0.01,0,0
2.537,0.5,-0.1,0.2,0.014,0.016,-1.005,-0.83,-0.01,0,0
2.544,0.9,-0.1,0.1,0.014,0.012,-1,-0.83,-0.01,0,0
2.550,0,0.2,0.4,0.007,0.007,-1.004,-0.83,-0.01,0,0
2.557,-0.4,0,0.3,0.01,0.005,-1.004,-0.83,-0.01,0,0
2.564,-0.2,-0.1,0,0.013,0.007,-0.998,-0.83,-0.01,0,0
2.571,0,0.3,0.3,0.01,0.013,-1.006,-0.83,-0.01,0,0
2.576,0.1,0,0,0.009,0.019,-1.004,-0.85,-0.01,0,0
2.581,-0.5,-0.8,-0.5,0.013,0.012,-1.002,-0.85,-0.01,0,0
2.586,-0.3,-0.5,-0.7,0.014,0.001,-0.996,-0.85,-0.01,0,0
2.591,-0.4,0.3,-1.2,0.01,-0.001,-1.006,-0.85,-0.01,0,0
2.596,-0.9,-0.1,-1.4,0.012,0.013,-1.005,-0.85,-0.01,0,0
2.600,-0.6,0,-1.4,0.01,0.016,-0.996,-0.85,-0.01,0,0
2.605,0.6,1.2,-0.7,0.006,0.008,-1.005,-0.85,-0.01,0,0
2.610,0.8,0,0,0.014,0.009,-0.991,-0.85,-0.01,0,0
2.615,-0.6,-0.2,1,0.009,0.01,-1.008,-0.85,-0.01,0,0
2.620,-0.8,-0.4,2.5,0.008,0.021,-1.003,-0.85,-0.01,0,0
2.624,-0.9,-0.2,3.2,0.016,0.012,-1.003,-0.9,0,0,0
2.629,-1.1,0,3.9,0.013,0.002,-0.998,-0.9,0,0,0
2.633,-0.7,0.4,4.5,0.006,0.01,-0.996,-0.9,0,0,0
2.637,-1.2,0.3,4.7,0.005,0.017,-1.006,-0.9,0,0,0
2.642,-0.1,0.4,4.6,0.011,0.017,-1.001,-0.9,0,0,0
2.646,1,0.7,4.7,0.017,0.007,-1.002,-0.9,0,0,0
2.650,1.9,0,4,0.014,0.006,-0.998,-0.9,0,0,0
2.655,1.5,-0.7,3.2,0.007,0.011,-1,-0.9,0,0,0
2.659,0.9,-0.9,2.7,0.007,0.012,-1.005,-0.9,0,0,0
2.663,0.7,-0.3,1.4,0.015,0.004,-1.005,-0.9,0,0,0
2.668,0.1,0,0.3,0.017,0,-1.002,-0.9,0,0,0
2.674,-0.6,0,-0.6,0.007,0.008,-0.999,-0.9,0,0,0
2.680,-1.1,0.2,-1.7,0.004,0.015,-1.002,-0.9,0,0,0
2.686,-0.3,0.4,-2.8,0.01,0.009,-1.005,-0.9,0,0,0
2.692,0.2,0.7,-3.8,0.017,0.006,-1.007,-0.9,0,0,0
2.699,0.2,0.1,-4.6,0.017,0.012,-1.002,-0.9,0,0,0
2.705,0,-0.7,-5,0.01,0.017,-1,-0.9,0,0,0
2.711,-0.4,-1,-5,0.01,0.012,-1.002,-0.9,0,0,0
2.715,-0.4,-0.1,-4.6,0.016,0.005,-1.007,-0.89,0,0,0
2.719,-0.6,0.4,-4.2,0.014,0.008,-1.005,-0.89,0,0,0
2.723,-0.6,0.5,-3.6,0.009,0.015,-1.002,-0.89,0,0,0
2.728,-0.3,0.8,-2.9,0.007,0.015,-0.999,-0.89,0,0,0
2.732,0.2,0.7,-2.1,0.011,0.011,-1.001,-0.89,0,0,0
2.736,0.5,0.7,-1.2,0.015,0.008,-1.004,-0.89,0,0,0
2.740,0.2,0,-0.4,0.013,0.012,-1.003,-0.89,0,0,0
2.744,-0.3,-0.6,0,0.009,0.014,-1.001,-0.89,0,0,0
2.748,0,-0.5,0.6,0.011,0.008,-0.999,-0.89,0,0,0
2.753,0.3,0,0.9,0.013,0.007,-1.002,-0.89,0,0,0
2.757,0.2,0.6,1.5,0.01,0.012,-1.006,-0.89,0,0,0
2.761,0.4,0.3,1.4,0.005,0.017,-1.004,-0.9,0,0,0
2.766,0.3,-0.1,0.3,0.008,0.017,-1.002,-0.9,0,0,0
2.771,0.7,-0.5,-0.7,0.015,0.012,-0.999,-0.9,0,0,0
2.775,1.2,-0.8,-1.7,0.018,0.006,-1.003,-0.9,0,0,0
2.780,1.2,-1.4,-2.6,0.015,0.006,-1.004,-0.9,0,0,0
2.785,0.9,-1.2,-2.9,0.01,0.01,-1.005,-0.9,0,0,0
2.789,0.7,0,-2.8,0.012,0.008,-1.002,-0.9,0,0,0
2.794,0.4,0.9,-2,0.013,0.005,-1.001,-0.9,0,0,0
2.799,0.2,1.3,-0.8,0.009,0.005,-1.005,-0.9,0,0,0
2.803,-0.1,1,0.4,0.006,0.009,-1.006,-0.9,0,0,0
2.808,0,0.4,1.8,0.01,0.01,-1.006,-0.9,0,0,0
2.815,0,-0.2,3.3,0.016,0.013,-1,-0.9,0,0,0
2.822,0,-0.8,4.6,0.016,0.013,-1,-0.9,0,0,0
2.828,0.2,-0.9,5.5,0.009,0.01,-1.002,-0.9,0,0,0
2.835,0,-0.5,5.9,0.006,0.006,-1.007,-0.9,0,0,0
2.842,-0.4,0.4,5.7,0.01,0.006,-1.006,-0.9,0,0,0
2.849,-0.7,1.5,5.4,0.013,0.008,-1.002,-0.9,0,0,0
2.856,-1.1,1.8,4.6,0.013,0.01,-1.002,-0.9,0,0,0
2.860,-1.1,1.5,3.5,0.009,0.009,-1.004,-0.88,0,0,0
2.864,-1.1,1,2.3,0.011,0.007,-1.006,-0.88,0,0,0
2.868,-0.8,0.4,1,0.014,0.007,-1.005,-0.88,0,0,0
2.872,-0.8,-0.4,-0.3,0.015,0.011,-1.002,-0.88,0,0,0
2.876,-0.8,-0.7,-1.2,0.013,0.011,-1.002,-0.88,0,0,0
2.880,-0.7,-0.8,-2.4,0.009,0.01,-1.005,-0.88,0,0,0
2.884,-0.4,0,-2.7,0.009,0.012,-1.008,-0.88,0,0,0
2.888,-0.4,0.5,-3.2,0.009,0.014,-1.007,-0.88,0,0,0
2.891,-0.1,1.2,-3.9,0.01,0.014,-1.006,-0.88,0,0,0
2.895,0,0.7,-3.5,0.009,0.015,-1.005,-0.88,0,0,0
2.899,0,0,-2.9,0.011,0.013,-1.007,-0.88,0,0,0
2.906,0.1,-0.8,-2.7,0.017,0.014,-1.011,-0.85,0,0,0
2.913,0.1,-1.4,-1.8,0.021,0.017,-1.01,-0.85,0,0,0
2.920,-0.1,-1.4,-1,0.018,0.018,-1.006,-0.85,0,0,0
2.927,0.4,-1,-0.6,0.012,0.013,-1.005,-0.85,0,0,0
2.933,0.6,-0.1,0,0.007,0.009,-1.003,-0.85,0,0,0
2.940,0.5,0.9,1,0.007,0.006,-1.01,-0.85,0,0,0
2.947,0.3,1,1.2,0.012,0.011,-1.01,-0.85,0,0,0
2.952,-0.1,0.5,1.4,0.015,0.013,-1.007,-0.84,0.01,0,0
2.956,-0.3,-0.4,1.6,0.019,0.014,-1.005,-0.84,0.01,0,0
2.960,-0.3,-1.4,1.2,0.022,0.015,-1.004,-0.84,0.01,0,0
2.965,-0.3,-1.7,0.7,0.021,0.012,-1.014,-0.84,0.01,0,0
2.969,-0.3,-2,0,0.028,0,-1.03,-0.84,0.01,0,0
2.973,0.7,-1.4,-0.6,0.039,-0.002,-1.047,-0.84,0.01,0,0
2.978,1.1,-0.4,-0.5,0.057,0.004,-1.048,-0.84,0.01,0,0
2.982,0.5,-1.9,-2.6,0.069,0.001,-1.057,-0.84,0.01,0,0
2.987,2.1,-2.1,-2.7,0.059,0.021,-1.085,-0.84,0.01,0,0
2.991,0.4,-3.4,-2.9,0.049,0.007,-1.106,-0.84,0.01,0,0
2.995,1.8,-4.2,-4.1,0.041,0.012,-1.105,-0.84,0.01,0,0
3.002,0.6,-6.3,-5,0.028,0.006,-1.088,-0.82,0.05,0,0
3.009,-3.5,-8.3,-6.2,0.035,-0.012,-1.091,-0.82,0.05,0,0
3.016,-1.4,-11.4,-4.8,0.026,0.01,-1.104,-0.82,0.05,0,0
3.023,-7.9,-14.6,-6.5,0.032,-0.034,-1.114,-0.82,0.05,0,0
3.030,-6.6,-18.5,-8.9,0.029,-0.018,-1.112,-0.82,0.05,0,0
3.036,-6.4,-21.3,-3.6,0.022,0.009,-1.137,-0.82,0.05,0,0
3.043,-7.1,-25.5,-9.8,0.029,-0.02,-1.145,-0.82,0.05,0,0
3.047,-3.1,-27.2,-7.3,0.02,0.01,-1.145,-0.81,0.11,-0.02,0.06
3.051,-2,-30.7,-8.4,0.013,0.009,-1.135,-0.81,0.11,-0.02,0.06
3.055,-2.3,-33.9,-6.3,0.011,-0.001,-1.137,-0.81,0.11,-0.02,0.06
3.059,-0.4,-36,-9.2,0.008,0.002,-1.136,-0.81,0.11,-0.02,0.06
3.063,-1.8,-40.1,-7.3,0.014,-0.011,-1.12,-0.81,0.11,-0.02,0.06
3.066,-4.4,-42.3,-5.4,0.017,-0.013,-1.107,-0.81,0.11,-0.02,0.06
3.070,-3.8,-45,-7.6,0.026,-0.004,-1.091,-0.81,0.11,-0.02,0.06
3.074,-7.8,-46.6,-5.2,0.03,-0.011,-1.086,-0.81,0.11,-0.02,0.06
3.078,-7,-48.7,-5.5,0.029,0.014,-1.076,-0.81,0.11,-0.02,0.06
3.082,-7,-49.7,-3.4,0.031,0.029,-1.072,-0.81,0.11,-0.02,0.06
3.086,-7.8,-49.9,-4.8,0.023,0.029,-1.068,-0.81,0.11,-0.02,0.06
3.091,-4.8,-50.4,-2.2,0.012,0.052,-1.067,-0.8,0.14,0,0.07
3.095,-5.5,-50.2,-2.6,0.001,0.048,-1.073,-0.8,0.14,0,0.07
3.100,-3.9,-49.7,-2.3,-0.009,0.043,-1.081,-0.8,0.14,0,0.07
3.105,-4,-48.6,-1.6,-0.027,0.044,-1.083,-0.8,0.14,0,0.07
3.110,-4.2,-48.2,-1.2,-0.041,0.033,-1.082,-0.8,0.14,0,0.07
3.115,-5.9,-45.9,-1,-0.068,0.023,-1.092,-0.8,0.14,0,0.07
3.119,-5.3,-44.5,-1,-0.082,0.023,-1.1,-0.8,0.14,0,0.07
3.124,-7.5,-43,-0.1,-0.095,0.006,-1.103,-0.8,0.14,0,0.07
3.129,-7.5,-40,0,-0.118,0.01,-1.105,-0.8,0.14,0,0.07
3.134,-7.2,-38.5,0.3,-0.132,0.01,-1.103,-0.8,0.14,0,0.07
3.141,-8.1,-36.2,0.3,-0.147,0.003,-1.111,-0.82,0.2,0,0.12
3.148,-5.5,-33.6,0.5,-0.17,0.021,-1.118,-0.82,0.2,0,0.12
3.155,-6.5,-31.5,-0.1,-0.181,0.017,-1.123,-0.82,0.2,0,0.12
3.161,-4.5,-29.3,-0.2,-0.193,0.023,-1.129,-0.82,0.2,0,0.12
3.168,-3.9,-26.4,-0.6,-0.202,0.03,-1.144,-0.82,0.2,0,0.12
3.175,-3.5,-23.5,0.2,-0.201,0.031,-1.161,-0.82,0.2,0,0.12
3.182,-2.2,-20.5,-0.4,-0.207,0.046,-1.175,-0.82,0.2,0,0.12
3.186,-1.8,-17.1,0.3,-0.21,0.054,-1.188,-0.82,0.29,0,0.02
3.190,-1.2,-14.4,-0.1,-0.208,0.062,-1.198,-0.82,0.29,0,0.02
3.193,-0.3,-10.2,0.3,-0.207,0.08,-1.21,-0.82,0.29,0,0.02
3.197,0,-7.4,0,-0.2,0.088,-1.212,-0.82,0.29,0,0.02
3.200,0.2,-3.1,-0.2,-0.192,0.098,-1.205,-0.82,0.29,0,0.02
3.204,1.1,0.5,-0.4,-0.187,0.108,-1.19,-0.82,0.29,0,0.02
3.208,0.7,4.1,-0.9,-0.174,0.104,-1.17,-0.82,0.29,0,0.02
3.211,1.3,8.3,-0.6,-0.169,0.103,-1.15,-0.82,0.29,0,0.02
3.215,1.3,11.8,-1.2,-0.16,0.094,-1.122,-0.82,0.29,0,0.02
3.218,0.7,15.1,-0.8,-0.151,0.079,-1.093,-0.82,0.29,0,0.02
3.222,1,18.6,-1.5,-0.144,0.068,-1.069,-0.82,0.29,0,0.02
3.226,0.1,21.9,-1.3,-0.133,0.047,-1.056,-0.82,0.29,0,0.02
3.229,0,24.5,-2.2,-0.121,0.029,-1.045,-0.82,0.29,0,0.02
3.238,0,27.8,-2.6,-0.116,0.017,-1.041,-0.79,0.31,0,0
3.247,-0.3,30,-3.4,-0.113,0.003,-1.04,-0.79,0.31,0,0
3.255,0.3,32.4,-3.9,-0.111,0,-1.048,-0.79,0.31,0,0
3.264,1.2,34.4,-4.2,-0.114,-0.002,-1.063,-0.79,0.31,0,0
3.273,1.8,36.1,-4.8,-0.114,-0.005,-1.079,-0.79,0.31,0,0
3.276,2.7,37.5,-4.5,-0.116,-0.004,-1.093,-0.77,0.39,0.03,0
3.280,3,38.6,-4.5,-0.118,-0.006,-1.111,-0.77,0.39,0.03,0
3.283,2.3,39.4,-4.3,-0.12,-0.01,-1.128,-0.77,0.39,0.03,0
3.287,1.9,39.9,-4.2,-0.124,-0.006,-1.141,-0.77,0.39,0.03,0
3.290,0.6,39.7,-3.9,-0.121,-0.007,-1.146,-0.77,0.39,0.03,0
3.294,-0.7,39.3,-3.9,-0.117,-0.003,-1.148,-0.77,0.39,0.03,0
3.297,-1.2,38.8,-3.5,-0.109,0,-1.148,-0.77,0.39,0.03,0
3.300,-2.9,36.9,-3.3,-0.098,0.002,-1.144,-0.77,0.39,0.03,0
3.304,-2.9,35.5,-3.2,-0.084,0.008,-1.135,-0.77,0.39,0.03,0
3.307,-3.1,33.6,-3.2,-0.067,0.01,-1.122,-0.77,0.39,0.03,0
3.311,-3.1,31.4,-3.1,-0.049,0.01,-1.111,-0.77,0.39,0.03,0
3.314,-2.6,29,-3.3,-0.032,0.011,-1.105,-0.77,0.39,0.03,0
3.318,-2.6,26.5,-3.4,-0.017,0.008,-1.102,-0.77,0.39,0.03,0
3.321,-2.4,23.7,-3.5,-0.004,0.002,-1.096,-0.77,0.39,0.03,0
3.327,-2.4,21.2,-3.4,0.005,-0.002,-1.094,-0.79,0.42,0.1,0.14
3.333,-3.1,18.4,-3.3,0.012,-0.009,-1.096,-0.79,0.42,0.1,0.14
3.338,-3.5,15.7,-2.9,0.017,-0.012,-1.1,-0.79,0.42,0.1,0.14
3.344,-3.8,12.9,-2.5,0.021,-0.013,-1.1,-0.79,0.42,0.1,0.14
3.350,-4.1,10.7,-2,0.023,-0.012,-1.098,-0.79,0.42,0.1,0.14
3.356,-3.7,8.4,-1.2,0.022,-0.005,-1.097,-0.79,0.42,0.1,0.14
3.361,-3.4,6.1,-0.6,0.022,0.001,-1.098,-0.79,0.42,0.1,0.14
3.367,-2.6,4.6,0.3,0.017,0.005,-1.1,-0.79,0.42,0.1,0.14
3.372,-2.1,2.6,1.4,0.011,0.01,-1.097,-0.79,0.46,0.03,-0.03
3.376,-1.5,1,1.8,0.001,0.008,-1.097,-0.79,0.46,0.03,-0.03
3.381,-1.4,-0.6,2.5,-0.009,0.006,-1.098,-0.79,0.46,0.03,-0.03
3.386,-1.4,-2.1,2.9,-0.017,0.005,-1.099,-0.79,0.46,0.03,-0.03
3.390,-1.7,-3.6,3.4,-0.023,0.001,-1.097,-0.79,0.46,0.03,-0.03
3.395,-1.8,-5.1,3.9,-0.029,-0.001,-1.096,-0.79,0.46,0.03,-0.03
3.400,-2.3,-6.3,4.3,-0.034,-0.003,-1.097,-0.79,0.46,0.03,-0.03
3.404,-2.6,-7.5,4.7,-0.038,-0.003,-1.1,-0.79,0.46,0.03,-0.03
3.409,-2.5,-8.5,4.9,-0.041,-0.001,-1.102,-0.79,0.46,0.03,-0.03
3.413,-2.5,-9.5,5,-0.042,0,-1.101,-0.79,0.46,0.03,-0.03
3.419,-2.2,-9.9,5,-0.043,0.003,-1.102,-0.78,0.5,-0.16,0.16
3.425,-1.8,-10.3,5,-0.045,0.007,-1.106,-0.78,0.5,-0.16,0.16
3.431,-1.8,-10.5,5.2,-0.046,0.008,-1.111,-0.78,0.5,-0.16,0.16
3.438,-1.7,-10.5,5.3,-0.054,0.013,-1.114,-0.78,0.5,-0.16,0.16
3.444,-1.7,-10.3,5.4,-0.061,0.016,-1.117,-0.78,0.5,-0.16,0.16
3.450,-1.8,-10.1,5.9,-0.068,0.019,-1.121,-0.78,0.5,-0.16,0.16
3.456,-1.7,-9.4,6.5,-0.073,0.025,-1.127,-0.78,0.5,-0.16,0.16
3.462,-1.7,-8.7,6.8,-0.076,0.031,-1.13,-0.78,0.5,-0.16,0.16
3.466,-1.3,-7.8,7.5,-0.079,0.038,-1.13,-0.8,0.55,0.09,0
3.471,-0.9,-6.7,7.9,-0.08,0.042,-1.127,-0.8,0.55,0.09,0
3.476,-0.3,-5.6,8.3,-0.08,0.045,-1.123,-0.8,0.55,0.09,0
3.481,0.1,-4.3,8.4,-0.08,0.047,-1.118,-0.8,0.55,0.09,0
3.485,0.7,-3.1,8.5,-0.082,0.046,-1.108,-0.8,0.55,0.09,0
3.490,0.9,-1.9,8.4,-0.079,0.042,-1.096,-0.8,0.55,0.09,0
3.495,0.7,-0.8,8.2,-0.076,0.038,-1.084,-0.8,0.55,0.09,0
3.500,0.4,0.4,7.6,-0.071,0.032,-1.074,-0.8,0.55,0.09,0
3.504,0,1.2,7.5,-0.065,0.028,-1.063,-0.8,0.55,0.09,0
3.509,-0.7,2.3,7,-0.059,0.024,-1.052,-0.8,0.55,0.09,0
3.515,-1.4,2.9,6.4,-0.05,0.021,-1.047,-0.79,0.56,0,0.05
3.521,-2,3.9,5.9,-0.042,0.022,-1.046,-0.79,0.56,0,0.05
3.528,-2.5,4.5,5.4,-0.035,0.025,-1.049,-0.79,0.56,0,0.05
3.534,-2.3,5.4,4.9,-0.032,0.029,-1.053,-0.79,0.56,0,0.05
3.540,-2.4,6,4.5,-0.031,0.034,-1.058,-0.79,0.56,0,0.05
3.546,-2.3,6.8,4.3,-0.035,0.039,-1.068,-0.79,0.56,0,0.05
3.552,-2.3,7.5,4.3,-0.041,0.045,-1.079,-0.79,0.56,0,0.05
3.558,-2,8.2,4.6,-0.045,0.051,-1.088,-0.79,0.56,0,0.05
3.563,-2,8.7,5,-0.049,0.057,-1.095,-0.75,0.61,-0.11,-0.05
3.568,-1.7,9.3,5.7,-0.052,0.063,-1.101,-0.75,0.61,-0.11,-0.05
3.573,-1.3,9.8,6.5,-0.052,0.068,-1.107,-0.75,0.61,-0.11,-0.05
3.578,-0.9,10.1,7.5,-0.051,0.072,-1.111,-0.75,0.61,-0.11,-0.05
3.583,-0.1,10.1,8.2,-0.05,0.077,-1.108,-0.75,0.61,-0.11,-0.05
3.588,0.6,10,8.6,-0.045,0.079,-1.104,-0.75,0.61,-0.11,-0.05
3.593,1.7,9.8,9.1,-0.037,0.079,-1.098,-0.75,0.61,-0.11,-0.05
3.598,3.1,9.3,9.5,-0.031,0.078,-1.091,-0.75,0.61,-0.11,-0.05
3.603,3.8,9,9.5,-0.021,0.073,-1.081,-0.75,0.61,-0.11,-0.05
3.608,4.9,8.6,9.2,-0.013,0.069,-1.07,-0.75,0.61,-0.11,-0.05
3.614,5.4,7.7,8.8,-0.004,0.062,-1.061,-0.66,0.64,-0.12,0.24
3.619,5.7,7.3,8.4,0.002,0.053,-1.054,-0.66,0.64,-0.12,0.24
3.625,5.9,6.5,7.8,0.009,0.045,-1.049,-0.66,0.64,-0.12,0.24
3.630,5.6,5.9,7.6,0.012,0.042,-1.045,-0.66,0.64,-0.12,0.24
3.636,5.4,5.3,7.3,0.012,0.036,-1.042,-0.66,0.64,-0.12,0.24
3.641,4.9,4.7,7,0.011,0.032,-1.041,-0.66,0.64,-0.12,0.24
3.646,4.9,4.1,7,0.006,0.031,-1.041,-0.66,0.64,-0.12,0.24
3.652,4.6,3.7,6.8,0,0.031,-1.04,-0.66,0.64,-0.12,0.24
3.657,4.8,3.2,6.9,-0.005,0.033,-1.039,-0.66,0.64,-0.12,0.24
3.663,4.8,2.8,7,-0.011,0.035,-1.039,-0.66,0.64,-0.12,0.24
3.668,5.1,2.3,7.4,-0.017,0.038,-1.04,-0.66,0.64,-0.12,0.24
3.672,5.7,2,8.2,-0.021,0.041,-1.04,-0.6,0.65,0.14,-0.14
3.676,5.8,1.6,8.6,-0.023,0.043,-1.039,-0.6,0.65,0.14,-0.14
3.680,6.2,1.2,9.1,-0.026,0.045,-1.038,-0.6,0.65,0.14,-0.14
3.684,6.6,0.7,9.5,-0.025,0.046,-1.036,-0.6,0.65,0.14,-0.14
3.687,7.1,0.1,10.1,-0.022,0.048,-1.038,-0.6,0.65,0.14,-0.14
3.691,7.4,-0.4,10.3,-0.015,0.05,-1.038,-0.6,0.65,0.14,-0.14
3.695,8,-1.1,10.8,-0.009,0.05,-1.038,-0.6,0.65,0.14,-0.14
3.699,8.3,-1.9,10.8,-0.002,0.048,-1.039,-0.6,0.65,0.14,-0.14
3.703,8.5,-2.7,10.6,0.003,0.044,-1.044,-0.6,0.65,0.14,-0.14
3.707,8.9,-3.6,10.4,0.01,0.043,-1.049,-0.6,0.65,0.14,-0.14
3.711,9.2,-4.1,10.2,0.015,0.04,-1.052,-0.6,0.65,0.14,-0.14
3.717,9,-5,9.8,0.018,0.037,-1.056,-0.58,0.67,-0.37,0
3.724,9,-5.6,9.4,0.016,0.033,-1.06,-0.58,0.67,-0.37,0
3.731,8.5,-6.1,8.6,0.01,0.03,-1.064,-0.58,0.67,-0.37,0
3.738,7.9,-6.7,8.1,0.004,0.026,-1.066,-0.58,0.67,-0.37,0
3.745,7.4,-7,7.6,-0.003,0.023,-1.064,-0.58,0.67,-0.37,0
3.752,7.1,-6.8,7.5,-0.011,0.02,-1.062,-0.58,0.67,-0.37,0
3.759,6.6,-6.7,7,-0.02,0.021,-1.058,-0.58,0.67,-0.37,0
3.762,6.5,-6.5,7,-0.028,0.023,-1.053,-0.61,0.69,-0.16,0
3.765,6.5,-6.2,6.9,-0.037,0.024,-1.045,-0.61,0.69,-0.16,0
3.769,7,-5.8,6.9,-0.042,0.025,-1.037,-0.61,0.69,-0.16,0
3.772,7.5,-5.3,7.1,-0.043,0.027,-1.031,-0.61,0.69,-0.16,0
3.776,8.2,-5,7.4,-0.041,0.028,-1.024,-0.61,0.69,-0.16,0
3.779,9.2,-4.5,7.6,-0.039,0.029,-1.02,-0.61,0.69,-0.16,0
3.782,10,-4.1,7.9,-0.035,0.028,-1.018,-0.61,0.69,-0.16,0
3.786,10.3,-4.2,8,-0.03,0.026,-1.019,-0.61,0.69,-0.16,0
3.789,10.9,-4.5,7.9,-0.025,0.023,-1.023,-0.61,0.69,-0.16,0
3.792,10.8,-4.8,7.8,-0.019,0.017,-1.028,-0.61,0.69,-0.16,0
3.796,10.7,-5.2,7.9,-0.013,0.009,-1.032,-0.61,0.69,-0.16,0
3.799,10.3,-5.6,7.7,-0.009,0.004,-1.038,-0.61,0.69,-0.16,0
3.802,10,-6.1,7.3,-0.007,0,-1.045,-0.61,0.69,-0.16,0
3.806,9.4,-6.7,6.6,-0.005,-0.006,-1.052,-0.61,0.69,-0.16,0
3.811,9,-7.1,5.5,-0.007,-0.008,-1.056,-0.62,0.7,-0.08,1.31
3.817,8.3,-7.3,4.3,-0.015,-0.011,-1.058,-0.62,0.7,-0.08,1.31
3.823,7.4,-7.8,3,-0.028,-0.014,-1.058,-0.62,0.7,-0.08,1.31
3.828,6.8,-8.1,1.7,-0.044,-0.016,-1.057,-0.62,0.7,-0.08,1.31
3.834,5.6,-8.4,0.4,-0.057,-0.018,-1.053,-0.62,0.7,-0.08,1.31
3.839,4.6,-8.6,-0.6,-0.067,-0.016,-1.047,-0.62,0.7,-0.08,1.31
3.845,3.6,-8.8,-1.5,-0.077,-0.015,-1.041,-0.62,0.7,-0.08,1.31
3.850,2.4,-8.8,-2.3,-0.081,-0.016,-1.036,-0.62,0.7,-0.08,1.31
3.855,1.5,-8.9,-3.2,-0.085,-0.015,-1.031,-0.63,0.72,0,0.09
3.860,0.7,-8.6,-3.6,-0.086,-0.011,-1.029,-0.63,0.72,0,0.09
3.865,0,-8.5,-3.9,-0.085,-0.007,-1.027,-0.63,0.72,0,0.09
3.870,-0.3,-8.5,-4.4,-0.082,-0.004,-1.028,-0.63,0.72,0,0.09
3.874,-0.3,-8.1,-4.3,-0.076,-0.002,-1.03,-0.63,0.72,0,0.09
3.879,-0.4,-8,-4.5,-0.068,0.001,-1.032,-0.63,0.72,0,0.09
3.884,-0.3,-7.6,-4.6,-0.06,0.003,-1.034,-0.63,0.72,0,0.09
3.889,-0.4,-7.2,-4.9,-0.053,0.003,-1.037,-0.63,0.72,0,0.09
3.894,-0.8,-6.9,-5.6,-0.045,0.003,-1.041,-0.63,0.72,0,0.09
3.898,-1.7,-6.4,-6.2,-0.036,0,-1.044,-0.63,0.72,0,0.09
3.904,-2.6,-5.8,-6.8,-0.028,-0.001,-1.045,-0.62,0.73,0.59,0.19
3.910,-3.6,-5.2,-7.6,-0.021,-0.003,-1.045,-0.62,0.73,0.59,0.19
3.916,-5,-4.6,-8.5,-0.018,-0.004,-1.046,-0.62,0.73,0.59,0.19
3.922,-6.1,-3.8,-9.5,-0.021,-0.004,-1.045,-0.62,0.73,0.59,0.19
3.928,-7,-3.4,-10.3,-0.026,-0.003,-1.042,-0.62,0.73,0.59,0.19
3.934,-7.6,-2.8,-11.2,-0.035,-0.002,-1.036,-0.62,0.73,0.59,0.19
3.940,-8.1,-1.9,-11.9,-0.047,0,-1.028,-0.62,0.73,0.59,0.19
3.946,-8.2,-1.6,-12.5,-0.059,0,-1.02,-0.62,0.73,0.59,0.19
3.950,-8.1,-1.2,-13.3,-0.071,-0.001,-1.01,-0.55,0.72,0.21,0
3.955,-7.9,-0.9,-14.1,-0.077,-0.002,-0.999,-0.55,0.72,0.21,0
3.959,-7.8,-0.6,-15,-0.079,-0.001,-0.988,-0.55,0.72,0.21,0
3.964,-7.5,-0.1,-15.6,-0.078,-0.001,-0.979,-0.55,0.72,0.21,0
3.968,-7.3,0.1,-15.9,-0.076,-0.003,-0.972,-0.55,0.72,0.21,0
3.973,-7.2,0.4,-15.9,-0.075,-0.002,-0.969,-0.55,0.72,0.21,0
3.977,-6.8,0.7,-15.5,-0.074,-0.001,-0.967,-0.55,0.72,0.21,0
3.982,-6.5,1,-14.7,-0.07,0,-0.968,-0.55,0.72,0.21,0
3.986,-6.2,1.2,-13.8,-0.066,0,-0.968,-0.55,0.72,0.21,0
3.990,-5.9,1.2,-12.6,-0.062,0,-0.971,-0.55,0.72,0.21,0
3.995,-5.7,1.5,-11.5,-0.055,0,-0.971,-0.55,0.72,0.21,0
4.002,-5.5,1.6,-10.6,-0.049,0,-0.971,-0.52,0.7,0.43,-0.21
4.009,-5.3,1.6,-10,-0.043,0.002,-0.97,-0.52,0.7,0.43,-0.21
4.016,-5.4,1.6,-9.1,-0.036,0.002,-0.968,-0.52,0.7,0.43,-0.21
4.023,-5.2,1.6,-8.6,-0.033,0.002,-0.962,-0.52,0.7,0.43,-0.21
4.029,-5.5,1.9,-8.5,-0.034,0.001,-0.955,-0.52,0.7,0.43,-0.21
4.036,-5.5,2,-8.2,-0.038,0,-0.947,-0.52,0.7,0.43,-0.21
4.043,-5.8,2.3,-8.2,-0.042,0,-0.94,-0.52,0.7,0.43,-0.21
4.047,-5.9,2.4,-7.9,-0.046,0,-0.932,-0.47,0.65,0.11,0.11
4.051,-5.7,2.5,-7.7,-0.054,0.001,-0.926,-0.47,0.65,0.11,0.11
4.055,-5.1,2.9,-7.6,-0.061,0.003,-0.919,-0.47,0.65,0.11,0.11
4.059,-4.5,3,-7.3,-0.067,0.007,-0.913,-0.47,0.65,0.11,0.11
4.062,-3.7,3.5,-6.9,-0.076,0.014,-0.911,-0.47,0.65,0.11,0.11
4.066,-2.6,3.5,-6.4,-0.082,0.018,-0.909,-0.47,0.65,0.11,0.11
4.070,-1.8,3.7,-5.7,-0.086,0.021,-0.909,-0.47,0.65,0.11,0.11
4.074,-1.4,3.5,-4.8,-0.087,0.021,-0.911,-0.47,0.65,0.11,0.11
4.078,-0.9,3.5,-3.8,-0.086,0.022,-0.917,-0.47,0.65,0.11,0.11
4.081,-0.7,3,-3.4,-0.083,0.022,-0.923,-0.47,0.65,0.11,0.11
4.085,-0.7,2.7,-2.7,-0.077,0.022,-0.93,-0.47,0.65,0.11,0.11
4.093,-0.4,2.3,-2.5,-0.07,0.025,-0.938,-0.42,0.64,1.06,0.11
4.102,-0.1,1.9,-2.5,-0.061,0.026,-0.945,-0.42,0.64,1.06,0.11
4.110,0,1.3,-2.8,-0.052,0.028,-0.951,-0.42,0.64,1.06,0.11
4.118,0,0.5,-3.2,-0.046,0.028,-0.954,-0.42,0.64,1.06,0.11
4.126,0,0.1,-3.8,-0.042,0.025,-0.955,-0.42,0.64,1.06,0.11
4.134,-0.1,-0.5,-4.3,-0.037,0.023,-0.951,-0.42,0.64,1.06,0.11
4.138,-0.8,-0.8,-4.8,-0.035,0.02,-0.944,-0.37,0.58,0,0.12
4.143,-1.3,-1.2,-5.4,-0.034,0.016,-0.935,-0.37,0.58,0,0.12
4.147,-2.2,-1.4,-5.6,-0.036,0.01,-0.925,-0.37,0.58,0,0.12
4.152,-3.1,-1.4,-5.7,-0.039,0.007,-0.911,-0.37,0.58,0,0.12
4.156,-3.9,-1.3,-5.3,-0.042,0.004,-0.9,-0.37,0.58,0,0.12
4.160,-4.4,-0.8,-4.8,-0.045,0.005,-0.89,-0.37,0.58,0,0.12
4.165,-4.7,-0.5,-4.6,-0.05,0.008,-0.884,-0.37,0.58,0,0.12
4.169,-4.8,0.1,-4.1,-0.055,0.012,-0.881,-0.37,0.58,0,0.12
4.174,-4.5,0.4,-4.1,-0.06,0.012,-0.885,-0.37,0.58,0,0.12
4.178,-4.5,0.9,-3.9,-0.065,0.017,-0.893,-0.37,0.58,0,0.12
4.182,-4.2,1.2,-3.6,-0.071,0.018,-0.906,-0.37,0.58,0,0.12
4.186,-4,1.2,-3.4,-0.075,0.02,-0.92,-0.29,0.54,0,0
4.189,-4,0.8,-3.4,-0.08,0.022,-0.938,-0.29,0.54,0,0
4.193,-3.9,0.5,-3.2,-0.083,0.024,-0.954,-0.29,0.54,0,0
4.196,-3.7,-0.1,-2.9,-0.085,0.025,-0.966,-0.29,0.54,0,0
4.200,-3.5,-0.8,-2.9,-0.087,0.026,-0.976,-0.29,0.54,0,0
4.203,-2.9,-1.4,-2.8,-0.087,0.028,-0.979,-0.29,0.54,0,0
4.207,-2.6,-2.3,-2.2,-0.086,0.031,-0.978,-0.29,0.54,0,0
4.210,-1.7,-2.9,-1.9,-0.084,0.034,-0.973,-0.29,0.54,0,0
4.214,-1.3,-3.4,-1.5,-0.077,0.036,-0.963,-0.29,0.54,0,0
4.217,-0.7,-3.8,-1.4,-0.07,0.036,-0.951,-0.29,0.54,0,0
4.221,-0.3,-3.7,-0.9,-0.06,0.035,-0.938,-0.29,0.54,0,0
4.224,-0.3,-3.7,-0.6,-0.05,0.032,-0.929,-0.29,0.54,0,0
4.228,-0.5,-3.4,-0.1,-0.042,0.03,-0.921,-0.29,0.54,0,0
4.231,-0.4,-2.9,0.1,-0.036,0.029,-0.916,-0.29,0.54,0,0
4.242,-0.6,-2.2,0.4,-0.031,0.027,-0.916,-0.26,0.53,0,0.83
4.252,-0.4,-1.7,0.9,-0.029,0.028,-0.923,-0.26,0.53,0,0.83
4.263,-0.7,-1.2,1,-0.033,0.028,-0.935,-0.26,0.53,0,0.83
4.273,-0.4,-0.8,1.1,-0.04,0.027,-0.951,-0.26,0.53,0,0.83
4.277,-0.8,-0.5,1,-0.048,0.026,-0.968,-0.22,0.51,0,0
4.280,-0.9,-0.5,1.4,-0.054,0.025,-0.986,-0.22,0.51,0,0
4.283,-1.2,-0.6,1.2,-0.06,0.023,-1.002,-0.22,0.51,0,0
4.287,-1.4,-0.8,1.4,-0.065,0.021,-1.016,-0.22,0.51,0,0
4.290,-1.7,-0.8,1.5,-0.07,0.02,-1.025,-0.22,0.51,0,0
4.294,-1.5,-0.9,1.9,-0.075,0.023,-1.026,-0.22,0.51,0,0
4.297,-1.3,-1.2,2.3,-0.08,0.025,-1.022,-0.22,0.51,0,0
4.301,-0.9,-1.3,2.4,-0.083,0.026,-1.01,-0.22,0.51,0,0
4.304,-0.3,-1.5,2.5,-0.082,0.028,-0.994,-0.22,0.51,0,0
4.307,0.4,-1.5,3.1,-0.074,0.031,-0.973,-0.22,0.51,0,0
4.311,1.3,-1.3,3.4,-0.065,0.036,-0.95,-0.22,0.51,0,0
4.314,2.6,-1,3.7,-0.053,0.041,-0.928,-0.22,0.51,0,0
4.318,3.7,-0.2,4.2,-0.04,0.047,-0.906,-0.22,0.51,0,0
4.321,4.9,0.5,4.3,-0.025,0.052,-0.887,-0.22,0.51,0,0
4.327,5.6,1.5,4.5,-0.011,0.055,-0.869,-0.21,0.45,0,0
4.334,6,2.7,4.7,0.002,0.056,-0.855,-0.21,0.45,0,0
4.340,6.3,4.2,5,0.014,0.055,-0.843,-0.21,0.45,0,0
4.347,5.9,5.7,5,0.025,0.051,-0.832,-0.21,0.45,0,0
4.353,5.6,7.3,5.3,0.033,0.049,-0.824,-0.21,0.45,0,0
4.360,5.1,8.8,5.3,0.038,0.047,-0.817,-0.21,0.45,0,0
4.366,4.7,10.1,5.4,0.038,0.045,-0.809,-0.21,0.45,0,0
4.371,4.4,11.7,5.3,0.036,0.041,-0.8,-0.21,0.33,0,-0.45
4.376,4.5,13.1,5.2,0.034,0.036,-0.79,-0.21,0.33,0,-0.45
4.381,4.9,14.3,5.3,0.029,0.032,-0.782,-0.21,0.33,0,-0.45
4.385,5.5,15.4,5.6,0.025,0.026,-0.776,-0.21,0.33,0,-0.45
4.390,6,16.3,5.9,0.02,0.022,-0.772,-0.21,0.33,0,-0.45
4.395,6.9,17.1,6.2,0.018,0.016,-0.772,-0.21,0.33,0,-0.45
4.400,7.8,18,6.7,0.015,0.013,-0.773,-0.21,0.33,0,-0.45
4.405,8.5,18.1,6.7,0.014,0.008,-0.777,-0.21,0.33,0,-0.45
4.410,9.2,18.7,7.2,0.013,0.005,-0.785,-0.21,0.33,0,-0.45
4.415,9.6,18.7,7.5,0.012,0.001,-0.796,-0.21,0.33,0,-0.45
4.419,10.1,18.7,7.9,0.01,-0.002,-0.808,-0.21,0.33,0,-0.45
4.425,10.3,18.6,8.4,0.007,-0.006,-0.823,-0.19,0.27,-0.15,0
4.431,10.4,18.6,8.9,0.005,-0.01,-0.837,-0.19,0.27,-0.15,0
4.437,10.5,18.2,9.1,0.006,-0.012,-0.851,-0.19,0.27,-0.15,0
4.443,10.4,18.2,9.3,0.008,-0.016,-0.865,-0.19,0.27,-0.15,0
4.449,10.2,18.2,9.4,0.008,-0.021,-0.877,-0.19,0.27,-0.15,0
4.455,9.6,18.1,9.2,0.009,-0.025,-0.887,-0.19,0.27,-0.15,0
4.461,8.9,18.1,8.9,0.009,-0.029,-0.893,-0.19,0.27,-0.15,0
4.465,8.4,18.2,8.8,0.012,-0.031,-0.895,-0.2,0.2,0,-0.15
4.470,7.7,18.3,8.3,0.013,-0.031,-0.894,-0.2,0.2,0,-0.15
4.474,7.2,18.4,7.9,0.015,-0.032,-0.891,-0.2,0.2,0,-0.15
4.479,6.7,18.5,7.3,0.015,-0.031,-0.886,-0.2,0.2,0,-0.15
4.483,6.5,18.6,7,0.017,-0.031,-0.878,-0.2,0.2,0,-0.15
4.487,6.2,18.6,6.1,0.017,-0.031,-0.871,-0.2,0.2,0,-0.15
4.492,6,18.4,5.5,0.016,-0.03,-0.863,-0.2,0.2,0,-0.15
4.496,5.9,18.2,5,0.013,-0.029,-0.857,-0.2,0.2,0,-0.15
4.500,5.7,17.8,4.8,0.011,-0.029,-0.852,-0.2,0.2,0,-0.15
4.505,5.8,17.2,4.3,0.009,-0.028,-0.849,-0.2,0.2,0,-0.15
4.509,5.1,16.8,4.2,0.008,-0.027,-0.846,-0.2,0.2,0,-0.15
4.516,4.8,16.1,4.2,0.01,-0.027,-0.845,-0.2,0.16,0,-0.32
4.523,4.3,15.5,4,0.011,-0.028,-0.848,-0.2,0.16,0,-0.32
4.530,3.6,14.7,4,0.013,-0.029,-0.852,-0.2,0.16,0,-0.32
4.537,3,14.3,4,0.013,-0.031,-0.859,-0.2,0.16,0,-0.32
4.544,2.3,13.4,3.9,0.011,-0.033,-0.869,-0.2,0.16,0,-0.32
4.551,1.5,12.8,3.9,0.008,-0.036,-0.879,-0.2,0.16,0,-0.32
4.558,1,11.9,3.7,0.004,-0.038,-0.89,-0.2,0.16,0,-0.32
4.562,0.9,11.5,3.7,0,-0.038,-0.901,-0.18,0.11,-0.16,-0.16
4.567,0.9,10.7,3.9,-0.003,-0.037,-0.912,-0.18,0.11,-0.16,-0.16
4.571,1.2,10.4,3.9,-0.005,-0.037,-0.92,-0.18,0.11,-0.16,-0.16
4.575,1.4,9.8,4.2,-0.008,-0.039,-0.925,-0.18,0.11,-0.16,-0.16
4.580,1.6,9.3,3.8,-0.012,-0.04,-0.926,-0.18,0.11,-0.16,-0.16
4.584,1.5,8.7,3.5,-0.014,-0.04,-0.923,-0.18,0.11,-0.16,-0.16
4.588,1.3,7.9,3,-0.012,-0.043,-0.919,-0.18,0.11,-0.16,-0.16
4.593,0.6,7.3,2.7,-0.009,-0.045,-0.911,-0.18,0.11,-0.16,-0.16
4.597,-0.1,6.6,2.7,-0.002,-0.047,-0.901,-0.18,0.11,-0.16,-0.16
4.602,-1.2,6.1,2.6,0.003,-0.05,-0.89,-0.18,0.11,-0.16,-0.16
4.606,-2.3,5.6,2.6,0.008,-0.053,-0.879,-0.18,0.11,-0.16,-0.16
4.612,-3.8,5.1,2.8,0.013,-0.056,-0.868,-0.16,0.06,0,0
4.618,-5.2,4.6,2.8,0.018,-0.057,-0.859,-0.16,0.06,0,0
4.624,-6.5,4,3.1,0.022,-0.057,-0.851,-0.16,0.06,0,0
4.630,-7.8,3.6,3.2,0.027,-0.056,-0.844,-0.16,0.06,0,0
4.636,-8.7,3.2,3.5,0.03,-0.053,-0.84,-0.16,0.06,0,0
4.642,-9.4,3.1,3.3,0.033,-0.048,-0.839,-0.16,0.06,0,0
4.648,-10,2.9,3.1,0.033,-0.042,-0.837,-0.16,0.06,0,0
4.652,-10.6,2.9,2.6,0.033,-0.037,-0.837,-0.09,0,0.16,0
4.657,-11.1,3.1,2.3,0.033,-0.033,-0.84,-0.09,0,0.16,0
4.661,-11.6,3.5,2.1,0.032,-0.029,-0.843,-0.09,0,0.16,0
4.666,-12,3.8,1.8,0.027,-0.024,-0.849,-0.09,0,0.16,0
4.670,-12.2,4,1.5,0.02,-0.016,-0.859,-0.09,0,0.16,0
4.674,-11.8,4.1,1.4,0.01,-0.004,-0.871,-0.09,0,0.16,0
4.679,-11.1,4.3,1.3,0,0.005,-0.882,-0.09,0,0.16,0
4.683,-10.3,4.1,1.2,-0.006,0.018,-0.895,-0.09,0,0.16,0
4.687,-9.4,3.7,1.3,-0.012,0.03,-0.906,-0.09,0,0.16,0
4.692,-8.4,3.2,1.6,-0.013,0.04,-0.914,-0.09,0,0.16,0
4.696,-7.5,2.7,1.7,-0.01,0.049,-0.919,-0.09,0,0.16,0
4.701,-7.2,1.8,2,-0.004,0.054,-0.924,-0.05,-0.03,0.16,0
4.705,-7,1.1,2.1,0.004,0.059,-0.928,-0.05,-0.03,0.16,0
4.710,-6.6,0.2,2.4,0.012,0.062,-0.932,-0.05,-0.03,0.16,0
4.714,-6.1,-0.5,2.5,0.021,0.063,-0.935,-0.05,-0.03,0.16,0
4.719,-5.3,-1.4,2.3,0.029,0.064,-0.941,-0.05,-0.03,0.16,0
4.723,-4.4,-2.3,1.9,0.036,0.064,-0.948,-0.05,-0.03,0.16,0
4.727,-2.6,-2.9,1.3,0.042,0.065,-0.956,-0.05,-0.03,0.16,0
4.732,-0.4,-3.6,0.7,0.046,0.069,-0.966,-0.05,-0.03,0.16,0
4.736,2.1,-3.9,-0.1,0.047,0.072,-0.978,-0.05,-0.03,0.16,0
4.741,4.9,-4.2,-1.3,0.045,0.075,-0.992,-0.05,-0.03,0.16,0
4.745,7.6,-4.3,-2.6,0.041,0.081,-1.007,-0.05,-0.03,0.16,0
4.750,10.3,-4.4,-3.7,0.038,0.085,-1.024,-0.03,0,-0.49,0.16
4.754,12.5,-4.2,-4.8,0.031,0.088,-1.039,-0.03,0,-0.49,0.16
4.759,14.2,-3.7,-5.9,0.024,0.09,-1.051,-0.03,0,-0.49,0.16
4.763,15.6,-3.5,-6.6,0.018,0.094,-1.059,-0.03,0,-0.49,0.16
4.767,16.8,-3.1,-7,0.01,0.097,-1.061,-0.03,0,-0.49,0.16
4.772,17.6,-2.3,-7.3,0.005,0.098,-1.059,-0.03,0,-0.49,0.16
4.776,18.1,-1.8,-7.7,0.001,0.099,-1.051,-0.03,0,-0.49,0.16
4.781,18.3,-1,-7.3,0,0.097,-1.04,-0.03,0,-0.49,0.16
4.785,18.5,-0.5,-7.2,-0.003,0.094,-1.024,-0.03,0,-0.49,0.16
4.790,18.7,0,-6.6,-0.002,0.089,-1.01,-0.03,0,-0.49,0.16
4.795,18.6,0.5,-6.2,0,0.082,-0.997,-0.04,-0.01,-0.32,0
4.801,18.7,0.8,-5.7,0.004,0.07,-0.986,-0.04,-0.01,-0.32,0
4.807,18.3,0.9,-5.2,0.009,0.056,-0.98,-0.04,-0.01,-0.32,0
4.812,17.6,1.1,-4.8,0.012,0.042,-0.978,-0.04,-0.01,-0.32,0
4.818,17.1,1,-4.4,0.015,0.027,-0.979,-0.04,-0.01,-0.32,0
4.824,16.1,1.4,-3.9,0.015,0.011,-0.982,-0.04,-0.01,-0.32,0
4.830,14.7,1.3,-3.4,0.014,-0.001,-0.987,-0.04,-0.01,-0.32,0
4.835,13.4,1.4,-3.1,0.01,-0.013,-0.992,-0.04,-0.01,-0.32,0
4.840,12,1.5,-2.9,0.003,-0.023,-0.999,-0.04,0,-0.32,0
4.844,10.5,1.7,-2.6,-0.003,-0.033,-1.007,-0.04,0,-0.32,0
4.848,8.9,1.7,-2.6,-0.011,-0.04,-1.015,-0.04,0,-0.32,0
4.853,7.2,1.8,-2.3,-0.017,-0.045,-1.023,-0.04,0,-0.32,0
4.857,5.9,2,-2,-0.022,-0.047,-1.027,-0.04,0,-0.32,0
4.862,4.9,2,-1.8,-0.024,-0.045,-1.029,-0.04,0,-0.32,0
4.866,4,2.1,-1.7,-0.022,-0.038,-1.029,-0.04,0,-0.32,0
4.870,3.5,2.3,-1.6,-0.018,-0.029,-1.027,-0.04,0,-0.32,0
4.875,3.1,2.1,-1.5,-0.009,-0.017,-1.023,-0.04,0,-0.32,0
4.879,2.6,2.4,-1.2,0.001,-0.006,-1.017,-0.04,0,-0.32,0
4.883,2.4,2.4,-0.9,0.014,0.006,-1.011,-0.04,0,-0.32,0
4.890,2,2.4,-0.5,0.028,0.016,-1.007,-0.04,0,0,0
4.897,1.2,2.4,-0.1,0.04,0.024,-1.002,-0.04,0,0,0
4.904,0.5,2.4,-0.1,0.049,0.032,-0.997,-0.04,0,0,0
4.911,-0.3,2.4,0.2,0.056,0.039,-0.995,-0.04,0,0,0
4.918,-0.9,2.5,0.1,0.062,0.045,-0.99,-0.04,0,0,0
4.925,-1.3,2.6,0.1,0.065,0.048,-0.985,-0.04,0,0,0
4.932,-1.4,2.6,0,0.068,0.051,-0.981,-0.04,0,0,0
4.937,-1.1,2.7,-0.3,0.07,0.052,-0.974,-0.01,-0.01,0,0
4.941,-0.9,3,-0.2,0.072,0.049,-0.971,-0.01,-0.01,0,0
4.945,-0.5,3.4,-0.7,0.073,0.044,-0.969,-0.01,-0.01,0,0
4.950,0,3.7,-1.2,0.072,0.037,-0.969,-0.01,-0.01,0,0
4.954,0.6,4.1,-1.7,0.067,0.03,-0.97,-0.01,-0.01,0,0
4.959,1,4.3,-2.3,0.062,0.023,-0.971,-0.01,-0.01,0,0
4.963,1.4,4.3,-3,0.055,0.017,-0.974,-0.01,-0.01,0,0
4.967,1.9,4.5,-3.9,0.043,0.011,-0.976,-0.01,-0.01,0,0
4.972,2.1,4,-5,0.031,0.008,-0.982,-0.01,-0.01,0,0
4.976,2.2,3.4,-6,0.019,0.006,-0.985,-0.01,-0.01,0,0
4.981,2.7,2.7,-7,0.011,0.006,-0.991,-0.01,-0.01,0,0
4.987,2.8,1.8,-7.9,0.004,0.007,-0.999,-0.01,0,0,0
4.993,2.9,0.7,-9,0,0.009,-1.007,-0.01,0,0,0
4.999,3.1,-0.2,-10,-0.002,0.011,-1.016,-0.01,0,0,0
5.005,2.9,-1.2,-10.4,-0.002,0.012,-1.025,-0.01,0,0,0
5.011,2.9,-2.5,-10.8,0,0.012,-1.033,-0.01,0,0,0
5.017,2.6,-3.6,-11.1,0.003,0.013,-1.042,-0.01,0,0,0
5.023,2.4,-4.8,-11.4,0.008,0.015,-1.047,-0.01,0,0,0
5.027,2.4,-5.6,-11.8,0.015,0.015,-1.048,-0.01,0,0,0
5.032,2.2,-6.6,-12,0.025,0.014,-1.046,-0.01,0,0,0
5.036,2.1,-7,-12.3,0.033,0.013,-1.041,-0.01,0,0,0
5.040,2.1,-7.4,-12.5,0.043,0.01,-1.032,-0.01,0,0,0
5.045,2.3,-7.5,-12.8,0.052,0.006,-1.019,-0.01,0,0,0
5.049,2.4,-7.2,-13,0.061,0.002,-1.005,-0.01,0,0,0
5.054,2.4,-6.9,-13.1,0.069,-0.003,-0.991,-0.01,0,0,0
5.058,2.4,-6.6,-12.9,0.077,-0.009,-0.977,-0.01,0,0,0
5.062,2.3,-6.1,-12.9,0.083,-0.017,-0.967,-0.01,0,0,0
5.067,2,-5.8,-12.8,0.088,-0.025,-0.957,-0.01,0,0,0
5.071,1.3,-5.5,-12.6,0.09,-0.033,-0.952,-0.01,0,0,0
5.077,0.9,-5.2,-12.5,0.093,-0.041,-0.946,0,-0.02,0,0.16
5.082,-0.1,-4.7,-12.3,0.095,-0.051,-0.942,0,-0.02,0,0.16
5.087,-1.2,-4.7,-12.2,0.097,-0.063,-0.938,0,-0.02,0,0.16
5.093,-2.3,-4.3,-12,0.095,-0.07,-0.935,0,-0.02,0,0.16
5.098,-3.3,-4.4,-12,0.087,-0.08,-0.933,0,-0.02,0,0.16
5.104,-4.2,-4.2,-11.8,0.079,-0.088,-0.932,0,-0.02,0,0.16
5.109,-4.7,-4.5,-11.4,0.067,-0.096,-0.937,0,-0.02,0,0.16
5.115,-4.9,-4.5,-11.4,0.053,-0.099,-0.943,0,-0.02,0,0.16
5.120,-4.8,-4.7,-11.2,0.036,-0.103,-0.956,0,-0.02,0,0.16
5.127,-4.4,-5,-10.9,0.018,-0.101,-0.97,0,-0.01,0,0
5.134,-3.9,-5.1,-10.6,0.001,-0.098,-0.986,0,-0.01,0,0
5.141,-3.3,-5.2,-10.3,-0.014,-0.093,-1.004,0,-0.01,0,0
5.148,-3,-5.5,-9.8,-0.029,-0.088,-1.021,0,-0.01,0,0
5.155,-2.7,-5.9,-9.2,-0.041,-0.081,-1.039,0,-0.01,0,0
5.162,-2.8,-5.9,-8.4,-0.052,-0.072,-1.054,0,-0.01,0,0
5.169,-2.9,-6.1,-7.6,-0.062,-0.064,-1.064,0,-0.01,0,0
5.172,-3.4,-6.1,-6.6,-0.068,-0.057,-1.069,0.03,0,0.16,0
5.175,-4.2,-6.1,-5.3,-0.074,-0.052,-1.067,0.03,0,0.16,0
5.178,-4.9,-5.9,-3.9,-0.074,-0.047,-1.062,0.03,0,0.16,0
5.181,-5.8,-5.6,-2.3,-0.069,-0.04,-1.054,0.03,0,0.16,0
5.185,-6.1,-5.3,-1.1,-0.064,-0.034,-1.044,0.03,0,0.16,0
5.188,-6.2,-4.8,0.1,-0.054,-0.028,-1.036,0.03,0,0.16,0
5.191,-6.1,-4.2,1.4,-0.041,-0.027,-1.026,0.03,0,0.16,0
5.194,-6.2,-3.5,2.2,-0.028,-0.03,-1.018,0.03,0,0.16,0
5.197,-6.3,-2.5,3,-0.013,-0.036,-1.012,0.03,0,0.16,0
5.200,-6.4,-1.6,3.4,0,-0.041,-1.008,0.03,0,0.16,0
5.203,-6.6,-0.4,3.7,0.013,-0.045,-1.005,0.03,0,0.16,0
5.207,-6.4,0.5,3.7,0.025,-0.047,-1.003,0.03,0,0.16,0
5.210,-6.3,1.7,3.4,0.035,-0.045,-1.001,0.03,0,0.16,0
5.213,-6.1,3,2.9,0.042,-0.042,-1,0.03,0,0.16,0
5.216,-5.8,4.1,2.5,0.049,-0.038,-0.997,0.03,0,0.16,0
5.230,-5.8,5.5,2.2,0.056,-0.032,-0.994,0.02,0,0.16,0
5.244,-6,6.9,2.2,0.06,-0.026,-0.991,0.02,0,0.16,0
5.259,-6.2,8.2,2.4,0.062,-0.02,-0.985,0.02,0,0.16,0
5.262,-6.9,9.3,2.5,0.063,-0.012,-0.978,0.03,0.02,0.16,-0.33
5.265,-7.6,10.3,2.9,0.058,-0.004,-0.973,0.03,0.02,0.16,-0.33
5.268,-8.3,11,3.2,0.05,0.002,-0.969,0.03,0.02,0.16,-0.33
5.272,-9.2,11.5,3.7,0.039,0.008,-0.97,0.03,0.02,0.16,-0.33
5.275,-9.9,11.5,4,0.029,0.013,-0.975,0.03,0.02,0.16,-0.33
5.278,-10.5,11.4,4.2,0.016,0.016,-0.985,0.03,0.02,0.16,-0.33
5.281,-11.1,11.1,4.2,0.004,0.018,-1,0.03,0.02,0.16,-0.33
5.285,-11.6,10.4,4.1,-0.006,0.019,-1.021,0.03,0.02,0.16,-0.33
5.288,-11.9,9.6,3.9,-0.016,0.018,-1.046,0.03,0.02,0.16,-0.33
5.291,-11.9,8.7,3.6,-0.026,0.016,-1.071,0.03,0.02,0.16,-0.33
5.295,-12.1,7.6,3,-0.036,0.011,-1.095,0.03,0.02,0.16,-0.33
5.298,-12.2,6.5,2.8,-0.041,0.006,-1.116,0.03,0.02,0.16,-0.33
5.301,-12,5.6,2.5,-0.043,0.003,-1.13,0.03,0.02,0.16,-0.33
5.304,-11.8,4.6,2.4,-0.042,0,-1.134,0.03,0.02,0.16,-0.33
5.308,-11.1,3.6,2.1,-0.036,0,-1.129,0.03,0.02,0.16,-0.33
5.314,-10.3,3,2.2,-0.026,0,-1.113,0.01,0.05,0.33,-0.16
5.320,-9,2.7,2.5,-0.011,0.001,-1.091,0.01,0.05,0.33,-0.16
5.327,-7.8,2.4,2.8,0.007,0.005,-1.065,0.01,0.05,0.33,-0.16
5.333,-6.2,2.4,3.1,0.029,0.009,-1.034,0.01,0.05,0.33,-0.16
5.340,-4.5,2.7,3.6,0.051,0.014,-1.002,0.01,0.05,0.33,-0.16
5.346,-2.9,3.1,3.9,0.072,0.019,-0.974,0.01,0.05,0.33,-0.16
5.352,-1.1,3.7,4.1,0.092,0.023,-0.947,0.01,0.05,0.33,-0.16
5.356,0.4,4.5,4.3,0.107,0.027,-0.928,0,0.01,0,-0.16
5.361,2.5,5.2,4.4,0.121,0.032,-0.912,0,0.01,0,-0.16
5.365,4.3,5.9,4.4,0.132,0.038,-0.903,0,0.01,0,-0.16
5.369,6,6.6,4.5,0.139,0.041,-0.903,0,0.01,0,-0.16
5.373,7.7,7.3,4.3,0.142,0.042,-0.907,0,0.01,0,-0.16
5.377,9.1,7.5,4.3,0.138,0.037,-0.916,0,0.01,0,-0.16
5.381,10.2,7.8,4.5,0.132,0.031,-0.931,0,0.01,0,-0.16
5.385,11,7.9,4.5,0.122,0.021,-0.947,0,0.01,0,-0.16
5.389,11.5,7.7,4.5,0.106,0.011,-0.963,0,0.01,0,-0.16
5.394,12,7.4,4.5,0.089,0,-0.98,0,0.01,0,-0.16
5.398,12.2,6.8,4.6,0.07,-0.008,-0.996,0,0.01,0,-0.16
5.405,12.4,6.3,4.2,0.05,-0.018,-1.01,-0.01,0.02,-0.33,-0.16
5.412,12.4,5.5,3.6,0.032,-0.027,-1.023,-0.01,0.02,-0.33,-0.16
5.419,12.3,4.6,3.2,0.012,-0.036,-1.033,-0.01,0.02,-0.33,-0.16
5.426,11.8,3.7,2.8,-0.001,-0.042,-1.04,-0.01,0.02,-0.33,-0.16
5.433,11.1,2.7,2,-0.012,-0.049,-1.044,-0.01,0.02,-0.33,-0.16
5.440,10.4,1.8,1.5,-0.019,-0.051,-1.046,-0.01,0.02,-0.33,-0.16
5.447,9.5,0.9,1,-0.024,-0.051,-1.044,-0.01,0.02,-0.33,-0.16
5.451,8.8,0.2,0.7,-0.027,-0.048,-1.042,0.02,0.03,0,0
5.456,8,-0.3,0.3,-0.028,-0.041,-1.035,0.02,0.03,0,0
5.460,7.3,-1,0.3,-0.023,-0.031,-1.028,0.02,0.03,0,0
5.464,6.7,-1.6,0.3,-0.017,-0.021,-1.019,0.02,0.03,0,0
5.469,6.2,-2,0.4,-0.008,-0.01,-1.013,0.02,0.03,0,0
5.473,5.9,-2.5,0.6,-0.001,0,-1.008,0.02,0.03,0,0
5.478,5.5,-3.1,0.7,0.008,0.007,-1.005,0.02,0.03,0,0
5.482,4.8,-3.1,0.8,0.016,0.012,-1.003,0.02,0.03,0,0
5.487,4.5,-3.4,0.9,0.024,0.015,-1.002,0.02,0.03,0,0
5.491,3.8,-3.6,1,0.034,0.015,-0.999,0.02,0.03,0,0
5.496,3.2,-3.7,1,0.043,0.015,-0.996,0.02,0.03,0,0
5.502,2.6,-3.6,1,0.05,0.014,-0.993,0.07,0.02,0,0
5.509,2,-3.6,1,0.055,0.008,-0.99,0.07,0.02,0,0
5.516,1.3,-3.1,0.9,0.057,0,-0.987,0.07,0.02,0,0
5.523,0.8,-3.1,0.9,0.058,-0.01,-0.985,0.07,0.02,0,0
5.530,0.1,-2.7,0.7,0.057,-0.021,-0.98,0.07,0.02,0,0
5.537,-0.3,-2.3,0.4,0.055,-0.028,-0.977,0.07,0.02,0,0
5.544,-0.6,-1.7,0,0.052,-0.035,-0.972,0.07,0.02,0,0
5.548,-0.9,-1.3,-0.6,0.045,-0.037,-0.968,0.08,0,0,0
5.551,-0.8,-0.9,-1,0.04,-0.037,-0.965,0.08,0,0,0
5.555,-0.8,-0.7,-1.5,0.035,-0.037,-0.963,0.08,0,0,0
5.559,-0.8,-0.3,-2,0.032,-0.033,-0.963,0.08,0,0,0
5.563,-0.8,0,-2.6,0.031,-0.031,-0.963,0.08,0,0,0
5.567,-1,0,-2.8,0.032,-0.026,-0.965,0.08,0,0,0
5.571,-1.4,0.1,-3.2,0.033,-0.017,-0.968,0.08,0,0,0
5.574,-1.7,0.1,-3.6,0.031,-0.009,-0.97,0.08,0,0,0
5.578,-2.3,0.1,-3.7,0.029,-0.001,-0.973,0.08,0,0,0
5.582,-2.9,0,-3.7,0.026,0.006,-0.977,0.08,0,0,0
5.586,-3.1,0,-3.7,0.022,0.013,-0.983,0.08,0,0,0
5.593,-3.1,-0.4,-3.6,0.017,0.02,-0.989,0.09,0,0,0
5.600,-3.3,-0.6,-3.7,0.01,0.027,-0.995,0.09,0,0,0
5.606,-3.1,-1,-3.5,0.004,0.03,-1.002,0.09,0,0,0
5.613,-3.2,-1.4,-3.2,0.002,0.031,-1.011,0.09,0,0,0
5.620,-3,-1.6,-3.1,0,0.029,-1.019,0.09,0,0,0
5.627,-2.9,-1.8,-2.7,-0.002,0.025,-1.026,0.09,0,0,0
5.634,-3.1,-1.7,-2.5,-0.004,0.017,-1.03,0.09,0,0,0
5.638,-3.4,-1.9,-2.3,-0.004,0.008,-1.034,0.1,0.01,0.16,0
5.643,-3.4,-2,-2.1,-0.005,0,-1.036,0.1,0.01,0.16,0
5.647,-3.3,-2,-2,-0.007,-0.006,-1.034,0.1,0.01,0.16,0
5.652,-2.8,-1.9,-2,-0.008,-0.012,-1.03,0.1,0.01,0.16,0
5.656,-2,-1.6,-2.3,-0.009,-0.018,-1.024,0.1,0.01,0.16,0
5.661,-1,-1.5,-2.4,-0.005,-0.021,-1.016,0.1,0.01,0.16,0
5.665,0,-0.9,-2.8,0,-0.023,-1.008,0.1,0.01,0.16,0
5.670,1,-0.6,-3.1,0.004,-0.025,-0.999,0.1,0.01,0.16,0
5.674,2,-0.3,-3.2,0.01,-0.024,-0.993,0.1,0.01,0.16,0
5.678,2.5,0,-3.4,0.016,-0.021,-0.989,0.1,0.01,0.16,0
5.683,3,0.4,-3.6,0.02,-0.019,-0.986,0.1,0.01,0.16,0
5.688,3.3,0.7,-3.8,0.025,-0.015,-0.983,0.1,0,0,0
5.693,3.5,0.9,-3.8,0.029,-0.01,-0.983,0.1,0,0,0
5.697,3.3,1.2,-3.7,0.033,-0.004,-0.985,0.1,0,0,0
5.702,3.4,1.5,-3.4,0.035,0,-0.986,0.1,0,0,0
5.707,3.2,1.5,-3.2,0.039,0.005,-0.986,0.1,0,0,0
5.712,3.1,1.7,-3.2,0.041,0.007,-0.987,0.1,0,0,0
5.717,3.1,1.8,-2.9,0.041,0.009,-0.99,0.1,0,0,0
5.722,3,2.1,-2.7,0.042,0.009,-0.992,0.1,0,0,0
5.727,2.9,2.1,-2.4,0.039,0.006,-0.994,0.1,0,0,0
5.731,2.7,2.1,-2.3,0.035,0.003,-0.995,0.1,0,0,0
5.737,2.8,2.1,-2,0.034,-0.001,-0.998,0.08,0,0,0
5.742,2.6,2,-1.7,0.031,-0.005,-1.001,0.08,0,0,0
5.747,2.9,1.8,-1.7,0.028,-0.013,-1.004,0.08,0,0,0
5.752,2.7,1.6,-1.8,0.026,-0.019,-1.008,0.08,0,0,0
5.758,2.6,1.9,-1.6,0.026,-0.025,-1.011,0.08,0,0,0
5.763,2.6,1.8,-2,0.024,-0.03,-1.014,0.08,0,0,0
5.768,2.4,1.6,-1.7,0.021,-0.034,-1.017,0.08,0,0,0
5.774,2.3,1.6,-1.8,0.019,-0.036,-1.02,0.08,0,0,0
5.778,2.2,1.5,-1.7,0.02,-0.038,-1.023,0.03,0.01,0,0
5.783,1.7,1.3,-1.5,0.021,-0.037,-1.026,0.03,0.01,0,0
5.788,1.4,1.2,-1.4,0.022,-0.037,-1.029,0.03,0.01,0,0
5.793,0.9,1,-1.2,0.024,-0.034,-1.03,0.03,0.01,0,0
5.798,0.5,0.9,-1.1,0.026,-0.034,-1.033,0.03,0.01,0,0
5.802,0,0.9,-1.2,0.027,-0.031,-1.034,0.03,0.01,0,0
5.807,-0.4,0.7,-0.7,0.027,-0.028,-1.033,0.03,0.01,0,0
5.812,-0.8,0.4,-0.6,0.028,-0.025,-1.032,0.03,0.01,0,0
5.817,-0.9,0.2,-0.2,0.03,-0.021,-1.029,0.03,0.01,0,0
5.822,-1.2,0.2,0,0.033,-0.018,-1.026,0.03,0.01,0,0
5.826,-1.2,0.1,0.2,0.034,-0.014,-1.023,-0.02,0.02,0,0
5.830,-1.1,0.3,0.4,0.038,-0.011,-1.021,-0.02,0.02,0,0
5.834,-0.9,0.3,0.6,0.041,-0.009,-1.019,-0.02,0.02,0,0
5.839,-0.7,0.2,0.5,0.043,-0.006,-1.018,-0.02,0.02,0,0
5.843,-0.4,0.1,0.4,0.045,-0.004,-1.018,-0.02,0.02,0,0
5.847,-0.3,0.1,0.3,0.046,-0.003,-1.019,-0.02,0.02,0,0
5.851,-0.1,0,0.3,0.047,-0.001,-1.019,-0.02,0.02,0,0
5.856,-0.2,0.1,0.3,0.049,-0.002,-1.019,-0.02,0.02,0,0
5.860,-0.2,0,0.3,0.048,-0.002,-1.018,-0.02,0.02,0,0
5.864,-0.3,0,0.1,0.049,0,-1.017,-0.02,0.02,0,0
5.868,-0.3,0.2,0,0.048,-0.002,-1.017,-0.02,0.02,0,0
5.873,-0.4,0.1,0.1,0.048,-0.002,-1.018,-0.04,0.02,0,0
5.877,-0.4,0,0.1,0.046,-0.004,-1.019,-0.04,0.02,0,0
5.881,-0.6,0,0,0.043,-0.004,-1.021,-0.04,0.02,0,0
5.885,-0.6,0,0,0.043,-0.007,-1.023,-0.04,0.02,0,0
5.889,-0.8,-0.1,-0.1,0.043,-0.008,-1.025,-0.04,0.02,0,0
5.893,-0.8,0,-0.4,0.043,-0.011,-1.025,-0.04,0.02,0,0
5.898,-1.1,0,-0.5,0.041,-0.013,-1.024,-0.04,0.02,0,0
5.902,-1,-0.1,-0.9,0.04,-0.013,-1.023,-0.04,0.02,0,0
5.906,-1,-0.1,-1,0.04,-0.013,-1.023,-0.04,0.02,0,0
5.910,-1.1,0,-1.4,0.038,-0.012,-1.022,-0.04,0.02,0,0
5.914,-0.9,0,-1.4,0.037,-0.011,-1.022,-0.04,0.02,0,0
5.921,-0.6,-0.1,-1.5,0.037,-0.009,-1.023,-0.04,0.03,0,0
5.928,-0.4,-0.1,-1.2,0.037,-0.005,-1.023,-0.04,0.03,0,0
5.934,-0.3,0,-1,0.037,-0.003,-1.024,-0.04,0.03,0,0
5.941,0,0,-0.9,0.037,0,-1.025,-0.04,0.03,0,0
5.948,0.3,0.2,-0.7,0.037,0.002,-1.024,-0.04,0.03,0,0
5.955,0.4,0.2,-0.2,0.038,0.003,-1.024,-0.04,0.03,0,0
5.961,0.4,0.1,0,0.041,0.002,-1.023,-0.04,0.03,0,0
5.966,0.6,0.3,0.1,0.042,0.003,-1.021,-0.03,0.03,0,0
5.970,0.5,0.5,0.1,0.042,0.001,-1.018,-0.03,0.03,0,0
5.974,0.7,0.6,0.3,0.042,0.001,-1.017,-0.03,0.03,0,0
5.979,0.9,0.5,0.3,0.043,0,-1.014,-0.03,0.03,0,0
5.983,0.9,0.6,0.6,0.045,-0.002,-1.012,-0.03,0.03,0,0
5.987,0.9,0.5,0.7,0.045,-0.004,-1.01,-0.03,0.03,0,0
5.992,0.8,0.7,0.6,0.046,-0.007,-1.008,-0.03,0.03,0,0
5.996,0.6,0.8,0.7,0.048,-0.011,-1.007,-0.03,0.03,0,0
6.000,0.5,1,0.4,0.047,-0.013,-1.007,-0.03,0.03,0,0
6.005,0.3,1,0.4,0.049,-0.015,-1.006,-0.03,0.03,0,0
6.009,0,0.9,0.2,0.049,-0.016,-1.007,-0.03,0.03,0,0
6.016,0,1.2,0,0.047,-0.018,-1.009,-0.03,0.03,0,0
6.023,-0.1,1,0,0.047,-0.019,-1.009,-0.03,0.03,0,0
6.030,-0.3,1,-0.3,0.046,-0.018,-1.01,-0.03,0.03,0,0
6.037,-0.6,1.2,-0.5,0.042,-0.018,-1.012,-0.03,0.03,0,0
6.044,-0.8,1.2,-0.4,0.041,-0.019,-1.013,-0.03,0.03,0,0
6.051,-1.2,1.2,-0.6,0.039,-0.016,-1.015,-0.03,0.03,0,0
6.058,-1.5,1.2,-0.7,0.039,-0.016,-1.017,-0.03,0.03,0,0
6.063,-1.9,1,-1,0.037,-0.013,-1.019,-0.03,0.04,0,0
6.068,-2.3,1,-0.9,0.036,-0.011,-1.018,-0.03,0.04,0,0
6.073,-2.6,0.9,-0.9,0.035,-0.01,-1.019,-0.03,0.04,0,0
6.078,-3.1,1,-0.8,0.033,-0.01,-1.021,-0.03,0.04,0,0
6.082,-3.6,0.9,-0.7,0.032,-0.01,-1.021,-0.03,0.04,0,0
6.087,-4,0.9,-0.7,0.032,-0.01,-1.021,-0.03,0.04,0,0
6.092,-4.7,0.9,-0.5,0.032,-0.012,-1.02,-0.03,0.04,0,0
6.097,-5.3,0.9,-0.4,0.033,-0.012,-1.02,-0.03,0.04,0,0
6.102,-5.5,0.9,-0.5,0.035,-0.013,-1.021,-0.03,0.04,0,0
6.106,-6,1,-0.7,0.035,-0.012,-1.02,-0.03,0.04,0,0
6.112,-6.4,0.9,-0.7,0.037,-0.012,-1.017,-0.01,0.04,0,0
6.118,-6.7,0.6,-0.9,0.04,-0.014,-1.016,-0.01,0.04,0,0
6.124,-7.1,0.9,-1,0.04,-0.014,-1.015,-0.01,0.04,0,0
6.130,-7.6,0.8,-1.3,0.039,-0.014,-1.012,-0.01,0.04,0,0
6.136,-8.2,0.6,-1.4,0.04,-0.013,-1.012,-0.01,0.04,0,0
6.142,-8.6,0.7,-1.6,0.041,-0.013,-1.011,-0.01,0.04,0,0
6.148,-9.1,0.7,-1.8,0.041,-0.013,-1.01,-0.01,0.04,0,0
6.152,-9.5,0.7,-1.9,0.041,-0.012,-1.009,0.03,0.04,0,0
6.157,-10,0.8,-2.1,0.041,-0.01,-1.009,0.03,0.04,0,0
6.161,-10.3,0.8,-2,0.039,-0.01,-1.008,0.03,0.04,0,0
6.165,-10.7,1,-1.9,0.039,-0.007,-1.008,0.03,0.04,0,0
6.170,-11,1.1,-1.8,0.038,-0.006,-1.007,0.03,0.04,0,0
6.174,-11.2,1,-1.8,0.038,-0.005,-1.007,0.03,0.04,0,0
6.179,-11.5,1.2,-1.7,0.039,-0.002,-1.007,0.03,0.04,0,0
6.183,-11.6,1.3,-1.7,0.04,0,-1.008,0.03,0.04,0,0
6.187,-11.9,1.4,-1.7,0.039,0.002,-1.008,0.03,0.04,0,0
6.192,-12.1,1.4,-1.6,0.04,0.003,-1.008,0.03,0.04,0,0
6.196,-12.5,1.6,-1.6,0.04,0.003,-1.007,0.03,0.04,0,0
6.203,-12.7,1.5,-1.7,0.039,0.004,-1.006,0.05,0.03,0.16,0
6.210,-13,1.6,-1.6,0.037,0.007,-1.005,0.05,0.03,0.16,0
6.217,-12.9,1.6,-1.4,0.035,0.007,-1.004,0.05,0.03,0.16,0
6.224,-13.3,1.8,-1.6,0.035,0.007,-1.004,0.05,0.03,0.16,0
6.231,-13.6,1.8,-1.5,0.034,0.008,-1.004,0.05,0.03,0.16,0
6.238,-13.8,1.4,-1.5,0.032,0.009,-1.005,0.05,0.03,0.16,0
6.245,-14.1,1.6,-1.7,0.03,0.011,-1.005,0.05,0.03,0.16,0
6.249,-14.2,1.6,-1.5,0.029,0.014,-1.007,0.04,0.04,0.16,-0.16
6.252,-14.5,1.3,-1.6,0.029,0.016,-1.009,0.04,0.04,0.16,-0.16
6.255,-14.5,1.2,-1.5,0.028,0.02,-1.011,0.04,0.04,0.16,-0.16
6.258,-14.5,1.3,-1.5,0.028,0.022,-1.013,0.04,0.04,0.16,-0.16
6.261,-14.5,1.2,-1.6,0.029,0.025,-1.015,0.04,0.04,0.16,-0.16
6.264,-14.5,1.1,-1.7,0.03,0.027,-1.018,0.04,0.04,0.16,-0.16
6.267,-14.5,1.2,-1.6,0.029,0.03,-1.019,0.04,0.04,0.16,-0.16
6.270,-14.4,1,-1.5,0.03,0.032,-1.021,0.04,0.04,0.16,-0.16
6.274,-14.7,1,-1.5,0.03,0.036,-1.022,0.04,0.04,0.16,-0.16
6.277,-14.7,0.9,-1.7,0.03,0.035,-1.021,0.04,0.04,0.16,-0.16
6.280,-14.9,1,-1.5,0.03,0.036,-1.02,0.04,0.04,0.16,-0.16
6.283,-15.2,1,-1.4,0.031,0.037,-1.018,0.04,0.04,0.16,-0.16
6.286,-15.5,1.1,-1.4,0.032,0.037,-1.015,0.04,0.04,0.16,-0.16
6.289,-15.6,1,-1.2,0.033,0.037,-1.012,0.04,0.04,0.16,-0.16
6.292,-15.9,1.2,-0.7,0.035,0.038,-1.01,0.04,0.04,0.16,-0.16
6.303,-16.4,1,-0.4,0.036,0.04,-1.009,0.03,0.04,0.16,0
6.314,-16.6,1.2,-0.1,0.039,0.042,-1.008,0.03,0.04,0.16,0
6.325,-16.8,1.2,0.1,0.039,0.043,-1.008,0.03,0.04,0.16,0
6.336,-17.3,1.2,0.4,0.041,0.04,-1.009,0.03,0.04,0.16,0
6.340,-17.7,1,0.7,0.041,0.041,-1.011,0.05,0.04,0.32,-0.16
6.344,-18.1,1.1,0.9,0.041,0.04,-1.011,0.05,0.04,0.32,-0.16
6.348,-18.5,1,1.2,0.04,0.04,-1.012,0.05,0.04,0.32,-0.16
6.352,-18.9,0.9,1.2,0.038,0.04,-1.012,0.05,0.04,0.32,-0.16
6.356,-19.2,0.9,1.5,0.035,0.04,-1.014,0.05,0.04,0.32,-0.16
6.360,-19.6,0.6,1.6,0.035,0.039,-1.016,0.05,0.04,0.32,-0.16
6.364,-19.8,0.5,1.7,0.034,0.04,-1.017,0.05,0.04,0.32,-0.16
6.368,-20.2,0.5,1.8,0.033,0.042,-1.016,0.05,0.04,0.32,-0.16
6.372,-20.5,0.2,1.8,0.034,0.046,-1.017,0.05,0.04,0.32,-0.16
6.376,-21.2,0,1.7,0.035,0.048,-1.018,0.05,0.04,0.32,-0.16
6.380,-21.6,0.1,2,0.034,0.051,-1.019,0.05,0.04,0.32,-0.16
6.384,-22.2,0,2.1,0.035,0.054,-1.02,0.05,0.04,0.32,-0.16
6.389,-22.8,-0.1,2.4,0.036,0.057,-1.022,0.06,0.05,0.32,0
6.394,-23.6,-0.1,2.5,0.036,0.062,-1.022,0.06,0.05,0.32,0
6.399,-24.6,-0.1,2.6,0.038,0.065,-1.022,0.06,0.05,0.32,0
6.404,-25.7,-0.2,2.7,0.04,0.069,-1.021,0.06,0.05,0.32,0
6.409,-26.4,-0.2,2.9,0.041,0.071,-1.02,0.06,0.05,0.32,0
6.415,-27.4,-0.3,3.1,0.043,0.075,-1.018,0.06,0.05,0.32,0
6.420,-28.2,-0.2,3.1,0.045,0.079,-1.018,0.06,0.05,0.32,0
6.425,-29.1,-0.5,3.3,0.047,0.08,-1.017,0.06,0.05,0.32,0
6.430,-29.4,-0.3,3.1,0.048,0.085,-1.018,0.06,0.05,0.32,0
6.434,-29.9,-0.4,3.1,0.049,0.089,-1.019,0.04,0.06,0.33,0
6.438,-30.1,-0.6,3.1,0.05,0.094,-1.022,0.04,0.06,0.33,0
6.442,-30.4,-0.9,2.8,0.05,0.099,-1.022,0.04,0.06,0.33,0
6.447,-30.5,-1.1,2.3,0.049,0.101,-1.024,0.04,0.06,0.33,0
6.451,-30.8,-1.3,2.2,0.049,0.103,-1.024,0.04,0.06,0.33,0
6.455,-31.3,-1.4,1.8,0.048,0.102,-1.023,0.04,0.06,0.33,0
6.459,-32.2,-1.4,1.5,0.048,0.1,-1.021,0.04,0.06,0.33,0
6.464,-33.2,-1.7,1.2,0.049,0.099,-1.017,0.04,0.06,0.33,0
6.468,-34.4,-1.9,0.9,0.047,0.096,-1.012,0.04,0.06,0.33,0
6.472,-36,-1.9,0.9,0.046,0.095,-1.004,0.04,0.06,0.33,0
6.476,-36.9,-1.9,0.7,0.045,0.092,-0.998,0.04,0.06,0.33,0
6.483,-38.3,-1.9,0.9,0.047,0.092,-0.991,0.02,0.04,0.32,0
6.491,-39.2,-1.8,0.9,0.048,0.095,-0.985,0.02,0.04,0.32,0
6.498,-40.5,-2,0.8,0.049,0.094,-0.981,0.02,0.04,0.32,0
6.505,-41.6,-1.7,0.9,0.05,0.094,-0.98,0.02,0.04,0.32,0
6.512,-42.9,-1.7,0.9,0.05,0.094,-0.979,0.02,0.04,0.32,0
6.519,-44.1,-1.7,1,0.049,0.095,-0.982,0.02,0.04,0.32,0
6.526,-45.4,-1.7,0.9,0.049,0.097,-0.985,0.02,0.04,0.32,0
6.530,-46.4,-1.6,0.5,0.045,0.102,-0.99,0.03,0.05,0.66,0
6.534,-47.1,-1.7,0.3,0.042,0.111,-0.995,0.03,0.05,0.66,0
6.539,-47.7,-1.7,0.1,0.039,0.119,-1.001,0.03,0.05,0.66,0
6.543,-48.2,-1.9,0,0.036,0.128,-1.006,0.03,0.05,0.66,0
6.547,-48.7,-1.9,-0.4,0.034,0.137,-1.011,0.03,0.05,0.66,0
6.551,-48.9,-1.9,-0.6,0.03,0.145,-1.015,0.03,0.05,0.66,0
6.555,-49.6,-1.9,-0.7,0.029,0.153,-1.018,0.03,0.05,0.66,0
6.559,-50,-1.7,-0.8,0.027,0.162,-1.018,0.03,0.05,0.66,0
6.563,-50.7,-1.8,-0.7,0.025,0.168,-1.016,0.03,0.05,0.66,0
6.567,-51.5,-1.7,-0.5,0.025,0.174,-1.012,0.03,0.05,0.66,0
6.572,-52.4,-1.7,-0.2,0.024,0.179,-1.007,0.03,0.05,0.66,0
6.579,-53.4,-1.5,0,0.024,0.183,-1.001,0.03,0.04,0.67,0
6.585,-54.4,-1.2,0.1,0.024,0.186,-0.996,0.03,0.04,0.67,0
6.592,-55.2,-1.2,0.3,0.024,0.191,-0.99,0.03,0.04,0.67,0
6.599,-55.8,-0.9,0.3,0.024,0.194,-0.986,0.03,0.04,0.67,0
6.606,-56,-0.7,0.1,0.023,0.199,-0.982,0.03,0.04,0.67,0
6.613,-56.4,-0.6,-0.1,0.024,0.204,-0.98,0.03,0.04,0.67,0
6.620,-56.5,-0.4,-0.4,0.026,0.209,-0.979,0.03,0.04,0.67,0
6.624,-56.4,-0.1,-0.9,0.029,0.215,-0.978,0.05,0.04,0.51,0
6.627,-56.3,0.1,-1.2,0.031,0.22,-0.978,0.05,0.04,0.51,0
6.631,-56.2,0.4,-1.5,0.031,0.226,-0.98,0.05,0.04,0.51,0
6.634,-56.2,0.8,-1.7,0.031,0.231,-0.981,0.05,0.04,0.51,0
6.638,-56.3,1,-1.9,0.029,0.239,-0.985,0.05,0.04,0.51,0
6.641,-56.4,1.3,-2.4,0.028,0.245,-0.989,0.05,0.04,0.51,0
6.645,-56.6,1.5,-2.6,0.028,0.253,-0.992,0.05,0.04,0.51,0
6.648,-56.8,1.7,-2.6,0.025,0.262,-0.996,0.05,0.04,0.51,0
6.652,-57.2,1.9,-2.9,0.023,0.269,-0.999,0.05,0.04,0.51,0
6.655,-57,2.1,-2.8,0.021,0.277,-1.002,0.05,0.04,0.51,0
6.659,-57.1,2.3,-2.7,0.021,0.283,-1.003,0.05,0.04,0.51,0
6.662,-56.8,2.6,-2.6,0.021,0.29,-1,0.05,0.04,0.51,0
6.666,-56.5,2.7,-2.5,0.02,0.296,-0.997,0.05,0.04,0.51,0
6.669,-56.1,3,-2.5,0.021,0.3,-0.992,0.05,0.04,0.51,0
6.680,-55.8,3.3,-2.3,0.024,0.302,-0.987,0.06,0.05,0.85,0
6.690,-55.9,3.5,-2.2,0.026,0.303,-0.982,0.06,0.05,0.85,0
6.701,-55.9,3.8,-2,0.03,0.303,-0.974,0.06,0.05,0.85,0
6.711,-55.9,3.9,-1.9,0.033,0.302,-0.967,0.06,0.05,0.85,0
6.716,-56,4.2,-1.8,0.035,0.301,-0.959,0.05,0.03,0.71,0
6.720,-56.4,4.5,-1.7,0.036,0.3,-0.952,0.05,0.03,0.71,0
6.724,-56.6,4.5,-1.7,0.039,0.3,-0.947,0.05,0.03,0.71,0
6.728,-56.6,4.7,-1.8,0.042,0.301,-0.944,0.05,0.03,0.71,0
6.733,-56.4,4.8,-1.5,0.042,0.304,-0.943,0.05,0.03,0.71,0
6.737,-56.1,4.9,-1.5,0.041,0.309,-0.944,0.05,0.03,0.71,0
6.741,-55.5,4.9,-1.5,0.039,0.317,-0.947,0.05,0.03,0.71,0
6.746,-55.1,5.2,-1.4,0.035,0.324,-0.951,0.05,0.03,0.71,0
6.750,-54.3,5,-1.4,0.032,0.334,-0.956,0.05,0.03,0.71,0
6.754,-53.7,5,-1.5,0.029,0.342,-0.958,0.05,0.03,0.71,0
6.759,-53.4,4.8,-1.4,0.027,0.352,-0.96,0.05,0.03,0.71,0
6.763,-52.9,4.9,-1.4,0.028,0.36,-0.961,0.09,0.03,0.72,0
6.768,-52.6,4.5,-1.1,0.028,0.367,-0.96,0.09,0.03,0.72,0
6.773,-52.5,4.6,-0.8,0.029,0.372,-0.957,0.09,0.03,0.72,0
6.777,-52.8,4.3,-0.4,0.031,0.379,-0.953,0.09,0.03,0.72,0
6.782,-53,4.4,0.1,0.033,0.383,-0.948,0.09,0.03,0.72,0
6.787,-53.1,4.3,0.4,0.039,0.385,-0.942,0.09,0.03,0.72,0
6.792,-53.2,4.1,0.8,0.041,0.386,-0.937,0.09,0.03,0.72,0
6.796,-53.5,4,1.4,0.043,0.389,-0.931,0.09,0.03,0.72,0
6.801,-53.4,4,1.5,0.047,0.388,-0.928,0.09,0.03,0.72,0
6.806,-53.3,3.5,1.8,0.052,0.388,-0.922,0.09,0.03,0.72,0
6.810,-53.1,3.8,2,0.054,0.388,-0.917,0.07,0.02,1.41,-0.17
6.814,-52.9,3.5,2,0.058,0.388,-0.913,0.07,0.02,1.41,-0.17
6.818,-52.9,3.5,2.2,0.062,0.388,-0.91,0.07,0.02,1.41,-0.17
6.823,-52.8,3.5,2,0.064,0.388,-0.907,0.07,0.02,1.41,-0.17
6.827,-52.9,3.5,1.7,0.065,0.388,-0.904,0.07,0.02,1.41,-0.17
6.831,-52.9,3.3,1.4,0.065,0.39,-0.902,0.07,0.02,1.41,-0.17
6.835,-52.9,3.2,0.9,0.065,0.394,-0.901,0.07,0.02,1.41,-0.17
6.840,-53.1,3.2,0.9,0.066,0.398,-0.9,0.07,0.02,1.41,-0.17
6.844,-53.1,3,0.5,0.062,0.405,-0.898,0.07,0.02,1.41,-0.17
6.848,-53.2,2.9,0.3,0.059,0.412,-0.897,0.07,0.02,1.41,-0.17
6.852,-53,2.7,0.3,0.056,0.418,-0.896,0.07,0.02,1.41,-0.17
6.857,-52.9,2.5,0,0.052,0.426,-0.896,0.07,0.01,1.44,0
6.862,-52.8,2.3,-0.1,0.05,0.432,-0.896,0.07,0.01,1.44,0
6.868,-52.8,2,-0.3,0.048,0.439,-0.894,0.07,0.01,1.44,0
6.873,-52.8,1.8,-0.4,0.046,0.447,-0.893,0.07,0.01,1.44,0
6.878,-52.9,1.3,-0.4,0.045,0.453,-0.89,0.07,0.01,1.44,0
6.883,-53.1,0.9,-0.4,0.042,0.457,-0.889,0.07,0.01,1.44,0
6.888,-53.5,0.4,-0.4,0.042,0.46,-0.885,0.07,0.01,1.44,0
6.893,-53.6,0,-0.1,0.043,0.462,-0.882,0.07,0.01,1.44,0
6.899,-53.6,-0.6,0.2,0.044,0.466,-0.878,0.07,0.01,1.44,0
6.904,-53.7,-1.1,0.4,0.046,0.471,-0.873,0.06,0.01,1.5,0
6.909,-53.7,-1.7,0.8,0.049,0.475,-0.869,0.06,0.01,1.5,0
6.914,-53.7,-2,0.9,0.052,0.481,-0.864,0.06,0.01,1.5,0
6.920,-53.4,-2.6,1,0.052,0.488,-0.861,0.06,0.01,1.5,0
6.925,-53.1,-2.8,1.2,0.056,0.494,-0.858,0.06,0.01,1.5,0
6.930,-52.8,-3.4,1,0.057,0.5,-0.856,0.06,0.01,1.5,0
6.936,-52.8,-3.7,1.2,0.06,0.506,-0.852,0.06,0.01,1.5,0
6.941,-52.8,-4.2,1.3,0.06,0.511,-0.849,0.06,0.01,1.5,0
6.946,-52.7,-4.5,1.4,0.061,0.515,-0.845,0.06,0.01,1.5,0
6.951,-52.8,-4.7,1.4,0.06,0.518,-0.842,0.04,0,1.54,0.19
6.956,-52.9,-5,1.5,0.06,0.521,-0.84,0.04,0,1.54,0.19
6.961,-52.9,-5.2,1.4,0.059,0.524,-0.839,0.04,0,1.54,0.19
6.966,-53.1,-5.5,1.3,0.057,0.526,-0.839,0.04,0,1.54,0.19
6.971,-53,-5.6,1.4,0.055,0.529,-0.838,0.04,0,1.54,0.19
6.976,-53.1,-5.8,1,0.051,0.53,-0.839,0.04,0,1.54,0.19
6.981,-53.1,-5.9,0.8,0.049,0.53,-0.84,0.04,0,1.54,0.19
6.986,-53.2,-6.2,0.5,0.045,0.531,-0.839,0.04,0,1.54,0.19
6.991,-53.5,-6.4,0.1,0.043,0.53,-0.838,0.04,0,1.54,0.19
6.996,-54,-6.7,0,0.041,0.53,-0.836,0.04,0,1.54,0.19
7.002,-54.3,-6.9,0,0.039,0.53,-0.833,0.03,0,1.71,0.19
7.008,-54.6,-7.1,-0.3,0.037,0.534,-0.83,0.03,0,1.71,0.19
7.014,-54.8,-7.5,-0.4,0.036,0.541,-0.825,0.03,0,1.71,0.19
7.020,-55.3,-7.7,-0.4,0.034,0.548,-0.821,0.03,0,1.71,0.19
7.026,-55.3,-8,-0.6,0.034,0.558,-0.817,0.03,0,1.71,0.19
7.032,-55.2,-8.3,-0.8,0.032,0.567,-0.815,0.03,0,1.71,0.19
7.038,-55.1,-8.5,-1,0.031,0.577,-0.812,0.03,0,1.71,0.19
7.044,-54.8,-8.7,-1.5,0.029,0.586,-0.808,0.03,0,1.71,0.19
7.049,-54.8,-9.4,-1.7,0.028,0.596,-0.805,0.01,0,0.99,0
7.054,-54.5,-9.4,-2,0.026,0.605,-0.802,0.01,0,0.99,0
7.060,-54,-9.6,-2.1,0.024,0.614,-0.8,0.01,0,0.99,0
7.065,-53.5,-9.7,-2.2,0.025,0.622,-0.797,0.01,0,0.99,0
7.070,-52.8,-9.7,-2.4,0.025,0.629,-0.795,0.01,0,0.99,0
7.076,-52.1,-10,-2.6,0.025,0.633,-0.793,0.01,0,0.99,0
7.081,-51.9,-9.9,-2.8,0.024,0.637,-0.79,0.01,0,0.99,0
7.086,-51.5,-9.8,-2.7,0.025,0.638,-0.787,0.01,0,0.99,0
7.091,-51.3,-10,-2.8,0.023,0.636,-0.782,0.02,-0.01,0.8,0.2
7.097,-51.3,-9.9,-2.9,0.023,0.634,-0.779,0.02,-0.01,0.8,0.2
7.102,-51.3,-9.7,-3.1,0.022,0.632,-0.779,0.02,-0.01,0.8,0.2
7.107,-51.5,-9.5,-3.4,0.022,0.63,-0.776,0.02,-0.01,0.8,0.2
7.113,-51.6,-9.4,-3.5,0.022,0.629,-0.775,0.02,-0.01,0.8,0.2
7.118,-51.8,-9.2,-3.7,0.021,0.629,-0.773,0.02,-0.01,0.8,0.2
7.123,-52,-9.1,-4,0.021,0.628,-0.772,0.02,-0.01,0.8,0.2
7.128,-52.3,-8.8,-4.2,0.019,0.629,-0.771,0.02,-0.01,0.8,0.2
7.134,-52.5,-8.4,-4.4,0.016,0.63,-0.772,0.02,-0.01,0.8,0.2
7.138,-52.6,-8.3,-4.5,0.015,0.634,-0.77,0.05,-0.01,0.63,0.21
7.143,-52.6,-8,-4.8,0.01,0.639,-0.769,0.05,-0.01,0.63,0.21
7.147,-52.7,-7.7,-5,0.007,0.646,-0.768,0.05,-0.01,0.63,0.21
7.152,-52.8,-7.7,-5.1,0.002,0.654,-0.764,0.05,-0.01,0.63,0.21
7.156,-52.4,-7.2,-5.1,-0.002,0.663,-0.76,0.05,-0.01,0.63,0.21
7.160,-52,-7,-4.8,-0.006,0.675,-0.755,0.05,-0.01,0.63,0.21
7.165,-51.7,-6.9,-4.8,-0.009,0.684,-0.75,0.05,-0.01,0.63,0.21
7.169,-51,-6.6,-4.6,-0.011,0.693,-0.745,0.05,-0.01,0.63,0.21
7.174,-50.5,-6.4,-4.6,-0.011,0.702,-0.74,0.05,-0.01,0.63,0.21
7.178,-49.9,-6.1,-4.2,-0.011,0.709,-0.735,0.05,-0.01,0.63,0.21
7.183,-49,-5.6,-4,-0.01,0.717,-0.73,0.05,-0.01,0.63,0.21
7.187,-48.2,-5.2,-3.7,-0.007,0.723,-0.726,0.11,-0.01,0.88,0
7.191,-47.6,-4.9,-3.5,-0.005,0.727,-0.721,0.11,-0.01,0.88,0
7.196,-47.1,-4.4,-3.4,-0.001,0.728,-0.717,0.11,-0.01,0.88,0
7.200,-46.7,-3.9,-3,0.001,0.727,-0.715,0.11,-0.01,0.88,0
7.204,-46.7,-3.4,-2.9,0.005,0.724,-0.714,0.11,-0.01,0.88,0
7.209,-46.5,-3,-2.6,0.008,0.72,-0.714,0.11,-0.01,0.88,0
7.213,-46.7,-2.3,-2.6,0.011,0.715,-0.714,0.11,-0.01,0.88,0
7.217,-47,-1.6,-2.5,0.011,0.712,-0.714,0.11,-0.01,0.88,0
7.221,-47.2,-1.1,-2.5,0.012,0.706,-0.716,0.11,-0.01,0.88,0
7.226,-47.7,-0.6,-2.5,0.012,0.703,-0.719,0.11,-0.01,0.88,0
7.230,-47.9,0.1,-2.9,0.012,0.699,-0.72,0.11,-0.01,0.88,0
7.236,-48.2,0.7,-3,0.011,0.697,-0.72,0.14,-0.02,0.89,0
7.242,-48.4,1.3,-3.5,0.008,0.695,-0.72,0.14,-0.02,0.89,0
7.248,-48.5,1.8,-4,0.004,0.694,-0.717,0.14,-0.02,0.89,0
7.255,-48.6,2.1,-4.5,0,0.697,-0.714,0.14,-0.02,0.89,0
7.261,-48.7,2.6,-4.9,-0.003,0.701,-0.709,0.14,-0.02,0.89,0
7.267,-48.6,2.9,-5.2,-0.006,0.707,-0.704,0.14,-0.02,0.89,0
7.273,-48.4,3.2,-5.4,-0.009,0.714,-0.699,0.14,-0.02,0.89,0
7.277,-48.6,3.2,-5.3,-0.013,0.722,-0.694,0.14,-0.02,1.53,0
7.281,-48.5,3.3,-5.2,-0.015,0.732,-0.688,0.14,-0.02,1.53,0
7.286,-48.5,3.4,-5.1,-0.014,0.742,-0.681,0.14,-0.02,1.53,0
7.290,-48.4,3.4,-4.5,-0.013,0.754,-0.676,0.14,-0.02,1.53,0
7.294,-48.4,3.3,-4.1,-0.011,0.764,-0.67,0.14,-0.02,1.53,0
7.299,-48.5,3.4,-3.6,-0.009,0.774,-0.664,0.14,-0.02,1.53,0
7.303,-48.5,3.2,-3,-0.008,0.781,-0.661,0.14,-0.02,1.53,0
7.307,-48.7,3,-2.6,-0.005,0.785,-0.66,0.14,-0.02,1.53,0
7.311,-48.5,3,-2.3,0,0.791,-0.659,0.14,-0.02,1.53,0
7.316,-48.7,2.8,-1.8,0.004,0.797,-0.661,0.14,-0.02,1.53,0
7.320,-48.4,2.9,-1.7,0.009,0.801,-0.662,0.14,-0.02,1.53,0
7.324,-48.4,2.7,-1.7,0.013,0.804,-0.664,0.11,0,1,0
7.328,-48.4,2.8,-1.5,0.016,0.805,-0.666,0.11,0,1,0
7.333,-48.3,2.8,-1.8,0.018,0.806,-0.668,0.11,0,1,0
7.337,-48.5,2.5,-2.3,0.021,0.805,-0.668,0.11,0,1,0
7.341,-48.7,2.5,-2.7,0.025,0.804,-0.668,0.11,0,1,0
7.345,-49,2.5,-3.1,0.027,0.802,-0.667,0.11,0,1,0
7.350,-49.2,2.3,-3.7,0.029,0.798,-0.664,0.11,0,1,0
7.354,-49.6,2.1,-4,0.032,0.796,-0.66,0.11,0,1,0
7.358,-49.9,2,-4.6,0.033,0.795,-0.655,0.11,0,1,0
7.362,-49.8,1.4,-4.7,0.032,0.796,-0.65,0.11,0,1,0
7.367,-49.8,1,-5,0.032,0.798,-0.642,0.11,0,1,0
7.373,-49.6,0.3,-5,0.032,0.802,-0.634,0.1,0,1.82,0
7.380,-49.5,0,-5.2,0.031,0.807,-0.625,0.1,0,1.82,0
7.386,-49,-0.9,-5,0.031,0.81,-0.614,0.1,0,1.82,0
7.393,-48.7,-1.7,-5,0.032,0.815,-0.604,0.1,0,1.82,0
7.399,-48.4,-2.2,-4.8,0.033,0.822,-0.597,0.1,0,1.82,0
7.406,-48.1,-2.8,-4.6,0.034,0.826,-0.59,0.1,0,1.82,0
7.412,-47.7,-3.6,-4.2,0.034,0.832,-0.584,0.1,0,1.82,0
7.417,-47.6,-4.1,-3.9,0.033,0.839,-0.579,0.07,0,1.11,0
7.421,-47.3,-4.8,-3.2,0.03,0.845,-0.577,0.07,0,1.11,0
7.426,-47.2,-5.3,-2.8,0.026,0.848,-0.577,0.07,0,1.11,0
7.430,-47.6,-6.2,-2.3,0.022,0.849,-0.578,0.07,0,1.11,0
7.434,-48.1,-6.5,-1.7,0.019,0.849,-0.581,0.07,0,1.11,0
7.439,-48.7,-7.2,-1.5,0.016,0.849,-0.585,0.07,0,1.11,0
7.443,-49.2,-7.4,-1.2,0.012,0.85,-0.588,0.07,0,1.11,0
7.448,-50.1,-7.8,-1.2,0.01,0.85,-0.591,0.07,0,1.11,0
7.452,-50.9,-8.2,-1,0.008,0.848,-0.593,0.07,0,1.11,0
7.456,-51.7,-8.3,-0.8,0.007,0.846,-0.593,0.07,0,1.11,0
7.461,-52.6,-8.5,-0.7,0.007,0.842,-0.592,0.07,0,1.11,0
7.468,-53.3,-8.6,-0.5,0.007,0.842,-0.589,0.04,0,2.3,0.28
7.475,-54.1,-8.8,-0.3,0.006,0.84,-0.582,0.04,0,2.3,0.28
7.482,-54.5,-8.7,-0.1,0.007,0.841,-0.574,0.04,0,2.3,0.28
7.488,-54.6,-8.5,0,0.006,0.845,-0.564,0.04,0,2.3,0.28
7.495,-54.6,-8.3,-0.1,0.006,0.853,-0.554,0.04,0,2.3,0.28
7.502,-54.2,-8,0.1,0.008,0.861,-0.543,0.04,0,2.3,0.28
7.509,-53.7,-7.8,0.2,0.008,0.868,-0.531,0.04,0,2.3,0.28
7.514,-52.9,-7.5,0.2,0.01,0.875,-0.519,0,0,1.25,0.31
7.518,-51.9,-7.1,0.3,0.012,0.882,-0.508,0,0,1.25,0.31
7.522,-51,-6.6,0.5,0.016,0.886,-0.498,0,0,1.25,0.31
7.527,-50.3,-6.1,0.7,0.017,0.889,-0.49,0,0,1.25,0.31
7.531,-49.2,-5.4,0.9,0.018,0.889,-0.484,0,0,1.25,0.31
7.536,-48.6,-5.1,1.4,0.016,0.889,-0.481,0,0,1.25,0.31
7.540,-48,-4.4,1.5,0.012,0.89,-0.481,0,0,1.25,0.31
7.544,-47.8,-4.1,1.8,0.008,0.892,-0.484,0,0,1.25,0.31
7.549,-47.6,-3.9,2.3,0.002,0.894,-0.492,0,0,1.25,0.31
7.553,-47.9,-3.4,2.8,-0.003,0.896,-0.503,0,0,1.25,0.31
7.558,-48.2,-3.2,3.1,-0.011,0.899,-0.514,0,0,1.25,0.31
7.563,-48.7,-3.3,3.5,-0.019,0.905,-0.527,0.02,0,1.01,0
7.569,-49.2,-3.4,3.4,-0.024,0.911,-0.535,0.02,0,1.01,0
7.574,-49.7,-3.4,3.5,-0.027,0.915,-0.54,0.02,0,1.01,0
7.579,-49.9,-3.3,3.4,-0.029,0.919,-0.542,0.02,0,1.01,0
7.585,-50.2,-3.7,3.4,-0.028,0.921,-0.539,0.02,0,1.01,0
7.590,-50.4,-3.7,3.4,-0.028,0.923,-0.531,0.02,0,1.01,0
7.596,-50.7,-3.7,3.4,-0.025,0.924,-0.519,0.02,0,1.01,0
7.601,-50.8,-3.6,3.4,-0.02,0.923,-0.502,0.02,0,1.01,0
7.607,-50.7,-3.4,3.1,-0.016,0.92,-0.484,0.02,0,1.01,0
7.612,-50.9,-3.3,3,-0.011,0.919,-0.467,0.04,0,1.48,0
7.617,-51.1,-3,2.9,-0.007,0.917,-0.45,0.04,0,1.48,0
7.622,-51,-3,2.9,-0.004,0.914,-0.435,0.04,0,1.48,0
7.627,-51.1,-2.7,2.7,-0.001,0.912,-0.422,0.04,0,1.48,0
7.633,-51.2,-2.6,2.6,0.001,0.907,-0.412,0.04,0,1.48,0
7.638,-50.9,-2.2,2.4,0.003,0.905,-0.405,0.04,0,1.48,0
7.643,-50.7,-2,2.3,0.005,0.902,-0.399,0.04,0,1.48,0
7.648,-50.4,-2,2.1,0.005,0.899,-0.398,0.04,0,1.48,0
7.653,-49.9,-1.7,2,0.003,0.897,-0.397,0.05,-0.02,1.27,0
7.657,-49.5,-1.6,2.1,0.002,0.895,-0.396,0.05,-0.02,1.27,0
7.661,-49.2,-1.6,2.1,-0.001,0.895,-0.395,0.05,-0.02,1.27,0
7.666,-49.1,-1.4,2.3,-0.005,0.894,-0.394,0.05,-0.02,1.27,0
7.670,-49.3,-1.4,2.4,-0.009,0.894,-0.394,0.05,-0.02,1.27,0
7.675,-49.3,-1.1,2.8,-0.011,0.895,-0.394,0.05,-0.02,1.27,0
7.679,-49.9,-1.1,2.7,-0.014,0.898,-0.39,0.05,-0.02,1.27,0
7.683,-50.1,-1,2.9,-0.016,0.904,-0.386,0.05,-0.02,1.27,0
7.688,-50.5,-1,2.8,-0.017,0.908,-0.383,0.05,-0.02,1.27,0
7.692,-50.8,-0.9,2.9,-0.019,0.915,-0.38,0.05,-0.02,1.27,0
7.697,-51,-0.9,2.7,-0.019,0.92,-0.376,0.05,-0.02,1.27,0
7.701,-51.3,-1.1,2.5,-0.02,0.926,-0.372,0.01,-0.04,1.85,0
7.705,-51.3,-1.3,2.5,-0.018,0.929,-0.366,0.01,-0.04,1.85,0
7.710,-51.3,-1.6,2.4,-0.014,0.93,-0.36,0.01,-0.04,1.85,0
7.714,-51.3,-1.7,2.3,-0.011,0.932,-0.352,0.01,-0.04,1.85,0
7.719,-51.1,-2.3,2.5,-0.006,0.932,-0.344,0.01,-0.04,1.85,0
7.723,-50.9,-2.3,2.5,0,0.933,-0.335,0.01,-0.04,1.85,0
7.728,-50.6,-2.6,2.7,0.006,0.932,-0.325,0.01,-0.04,1.85,0
7.732,-50,-2.8,2.9,0.011,0.93,-0.317,0.01,-0.04,1.85,0
7.737,-49.7,-3.1,3,0.016,0.928,-0.31,0.01,-0.04,1.85,0
7.741,-49.1,-3.2,3.2,0.019,0.925,-0.304,0.01,-0.04,1.85,0
7.745,-48.6,-3.3,3.2,0.023,0.924,-0.299,0.01,-0.04,1.85,0
7.752,-48.1,-3.6,3.2,0.026,0.926,-0.295,-0.02,-0.06,1.45,0
7.758,-47.7,-3.5,3.1,0.027,0.926,-0.294,-0.02,-0.06,1.45,0
7.765,-47.3,-3.7,2.8,0.027,0.927,-0.293,-0.02,-0.06,1.45,0
7.771,-46.9,-3.9,2.3,0.026,0.927,-0.293,-0.02,-0.06,1.45,0
7.777,-46.5,-4,2,0.026,0.927,-0.293,-0.02,-0.06,1.45,0
7.784,-46,-4.2,1.7,0.025,0.928,-0.291,-0.02,-0.06,1.45,0
7.790,-45.8,-4.2,1.3,0.023,0.928,-0.289,-0.02,-0.06,1.45,0
7.794,-45.5,-4.5,1,0.022,0.931,-0.286,-0.04,-0.09,1.5,0
7.798,-45.3,-4.9,1,0.019,0.933,-0.282,-0.04,-0.09,1.5,0
7.802,-45,-5.2,1.1,0.015,0.936,-0.278,-0.04,-0.09,1.5,0
7.807,-44.6,-5.3,1.2,0.011,0.941,-0.273,-0.04,-0.09,1.5,0
7.811,-44,-5.6,0.9,0.01,0.945,-0.267,-0.04,-0.09,1.5,0
7.815,-43.4,-5.9,0.9,0.01,0.95,-0.261,-0.04,-0.09,1.5,0
7.819,-42.9,-6.3,0.8,0.009,0.955,-0.255,-0.04,-0.09,1.5,0
7.823,-42.2,-6.5,0.7,0.008,0.957,-0.249,-0.04,-0.09,1.5,0
7.827,-41.8,-6.7,0.4,0.009,0.958,-0.244,-0.04,-0.09,1.5,0
7.831,-41.4,-6.9,0,0.009,0.958,-0.24,-0.04,-0.09,1.5,0
7.836,-41.3,-7.2,-0.1,0.01,0.958,-0.236,-0.04,-0.09,1.5,0
7.842,-41,-7.3,-0.5,0.01,0.958,-0.234,-0.05,-0.1,1.42,0
7.849,-40.7,-7.3,-0.9,0.011,0.962,-0.232,-0.05,-0.1,1.42,0
7.856,-40.3,-7.4,-1,0.01,0.965,-0.23,-0.05,-0.1,1.42,0
7.863,-39.9,-7.2,-1.2,0.009,0.969,-0.229,-0.05,-0.1,1.42,0
7.870,-39.5,-7.2,-1.2,0.008,0.975,-0.226,-0.05,-0.1,1.42,0
7.877,-38.9,-7.3,-1.4,0.005,0.981,-0.225,-0.05,-0.1,1.42,0
7.884,-38.6,-7.4,-1.3,0.002,0.988,-0.222,-0.05,-0.1,1.42,0
7.888,-38.1,-7.2,-1.3,0,0.993,-0.223,-0.01,-0.11,0.94,0.47
7.893,-37.6,-7.3,-1.1,0,0.994,-0.221,-0.01,-0.11,0.94,0.47
7.897,-37.5,-7,-1,0,0.996,-0.22,-0.01,-0.11,0.94,0.47
7.902,-37.3,-6.9,-0.9,-0.001,0.996,-0.218,-0.01,-0.11,0.94,0.47
7.906,-37.4,-6.9,-1.1,-0.003,0.996,-0.217,-0.01,-0.11,0.94,0.47
7.911,-37.7,-6.7,-1.3,-0.004,0.993,-0.216,-0.01,-0.11,0.94,0.47
7.915,-37.9,-6.6,-1.6,-0.007,0.991,-0.216,-0.01,-0.11,0.94,0.47
7.920,-38,-6.7,-1.6,-0.009,0.991,-0.216,-0.01,-0.11,0.94,0.47
7.924,-38.2,-6.6,-1.7,-0.011,0.99,-0.216,-0.01,-0.11,0.94,0.47
7.928,-38.3,-6.4,-2,-0.012,0.989,-0.213,-0.01,-0.11,0.94,0.47
7.933,-38.1,-6.6,-2.5,-0.014,0.989,-0.21,-0.01,-0.11,0.94,0.47
7.940,-37.9,-6.4,-2.6,-0.015,0.989,-0.205,0.01,-0.12,1.41,0
7.947,-37.9,-6.4,-2.8,-0.018,0.99,-0.2,0.01,-0.12,1.41,0
7.954,-37.8,-6.4,-2.9,-0.018,0.99,-0.193,0.01,-0.12,1.41,0
7.960,-37.5,-6.3,-3,-0.019,0.991,-0.186,0.01,-0.12,1.41,0
7.967,-37.1,-6.4,-2.9,-0.018,0.994,-0.178,0.01,-0.12,1.41,0
7.974,-36.8,-6.3,-3,-0.019,0.996,-0.171,0.01,-0.12,1.41,0
7.981,-36.3,-6.3,-2.7,-0.019,1.001,-0.163,0.01,-0.12,1.41,0
7.985,-35.9,-6.3,-2.8,-0.018,1.005,-0.156,0.04,-0.13,1.46,0
7.989,-35.5,-6.3,-2.4,-0.018,1.009,-0.152,0.04,-0.13,1.46,0
7.993,-35.2,-6.1,-2.3,-0.018,1.013,-0.15,0.04,-0.13,1.46,0
7.997,-34.6,-6.3,-2.1,-0.019,1.016,-0.15,0.04,-0.13,1.46,0
8.000,-34.1,-6.2,-1.8,-0.019,1.018,-0.15,0.04,-0.13,1.46,0
8.004,-33.6,-6,-1.7,-0.019,1.018,-0.154,0.04,-0.13,1.46,0
8.008,-33,-5.9,-1.4,-0.016,1.016,-0.156,0.04,-0.13,1.46,0
8.012,-32.4,-6.1,-1,-0.014,1.014,-0.16,0.04,-0.13,1.46,0
8.016,-32,-5.9,-0.9,-0.011,1.011,-0.162,0.04,-0.13,1.46,0
8.020,-31.5,-5.9,-0.4,-0.007,1.01,-0.163,0.04,-0.13,1.46,0
8.024,-30.9,-5.7,-0.2,-0.005,1.008,-0.164,0.04,-0.13,1.46,0
8.030,-30.4,-5.3,0.2,-0.001,1.005,-0.161,0.06,-0.13,1.44,0
8.037,-29.9,-5,0.4,0.001,1.005,-0.156,0.06,-0.13,1.44,0
8.044,-29.3,-4.4,0.7,0.004,1.004,-0.15,0.06,-0.13,1.44,0
8.051,-28.9,-4.1,0.8,0.004,1.007,-0.142,0.06,-0.13,1.44,0
8.058,-28.2,-3.6,0.9,0.004,1.008,-0.135,0.06,-0.13,1.44,0
8.064,-27.3,-3,1,0.003,1.009,-0.128,0.06,-0.13,1.44,0
8.071,-26.6,-2.3,1,0.003,1.01,-0.122,0.06,-0.13,1.44,0
8.076,-25.8,-1.8,1,0.003,1.009,-0.113,0.09,-0.15,1.47,0
8.081,-25,-1.1,0.7,0.004,1.008,-0.107,0.09,-0.15,1.47,0
8.086,-24.3,-0.3,0.6,0.005,1.007,-0.102,0.09,-0.15,1.47,0
8.091,-23.9,0.2,0.6,0.004,1.005,-0.099,0.09,-0.15,1.47,0
8.096,-23.5,0.9,0.2,0.005,1.004,-0.099,0.09,-0.15,1.47,0
8.101,-23.4,1.4,0.1,0.005,1.002,-0.099,0.09,-0.15,1.47,0
8.106,-23.4,1.7,0,0.004,1,-0.1,0.09,-0.15,1.47,0
8.111,-23,2.1,-0.3,0.002,1,-0.104,0.09,-0.15,1.47,0
8.115,-23,2.4,-0.6,0,1.001,-0.105,0.09,-0.15,1.47,0
8.120,-22.8,2.6,-0.6,0,1.002,-0.106,0.09,-0.15,1.47,0
8.125,-22.4,2.6,-0.8,-0.003,1.003,-0.106,0.09,-0.16,0,0
8.129,-21.9,2.5,-0.8,-0.005,1.007,-0.105,0.09,-0.16,0,0
8.133,-21.5,2.6,-0.7,-0.004,1.01,-0.101,0.09,-0.16,0,0
8.137,-21.2,2.5,-0.9,-0.001,1.011,-0.095,0.09,-0.16,0,0
8.141,-20.8,2.4,-0.8,0,1.011,-0.089,0.09,-0.16,0,0
8.146,-20.4,2.1,-0.7,0.002,1.011,-0.083,0.09,-0.16,0,0
8.150,-20.3,2.1,-0.7,0.003,1.009,-0.077,0.09,-0.16,0,0
8.154,-20.2,1.8,-0.6,0.004,1.005,-0.071,0.09,-0.16,0,0
8.158,-20.1,1.8,-0.4,0.004,1.001,-0.068,0.09,-0.16,0,0
8.163,-20.2,1.5,-0.3,0.004,0.998,-0.067,0.09,-0.16,0,0
8.167,-20.2,1,0,0.003,0.993,-0.067,0.09,-0.16,0,0
8.173,-20.5,0.9,0,0.001,0.991,-0.07,0.06,-0.18,0.48,0
8.179,-20.4,0.4,0.2,0,0.99,-0.073,0.06,-0.18,0.48,0
8.185,-20.5,0,0.1,-0.003,0.99,-0.075,0.06,-0.18,0.48,0
8.192,-20.2,-0.3,0.1,-0.006,0.989,-0.077,0.06,-0.18,0.48,0
8.198,-20.3,-0.5,0,-0.007,0.991,-0.078,0.06,-0.18,0.48,0
8.204,-20,-1,-0.1,-0.009,0.994,-0.078,0.06,-0.18,0.48,0
8.210,-20,-1.4,-0.3,-0.01,0.999,-0.075,0.06,-0.18,0.48,0
8.214,-19.7,-1.6,-0.6,-0.01,1.004,-0.071,0.01,-0.2,0.47,0
8.217,-19.5,-1.9,-0.8,-0.008,1.008,-0.066,0.01,-0.2,0.47,0
8.221,-19.5,-2.3,-0.8,-0.008,1.012,-0.06,0.01,-0.2,0.47,0
8.224,-19.5,-2.5,-1,-0.008,1.016,-0.054,0.01,-0.2,0.47,0
8.227,-19.8,-2.9,-1,-0.009,1.016,-0.048,0.01,-0.2,0.47,0
8.231,-19.9,-3,-0.9,-0.009,1.016,-0.043,0.01,-0.2,0.47,0
8.234,-20.2,-3.1,-0.8,-0.009,1.015,-0.039,0.01,-0.2,0.47,0
8.238,-20.4,-3.4,-0.9,-0.009,1.013,-0.036,0.01,-0.2,0.47,0
8.241,-20.5,-3.7,-0.7,-0.009,1.011,-0.037,0.01,-0.2,0.47,0
8.245,-20.6,-3.9,-0.9,-0.008,1.007,-0.038,0.01,-0.2,0.47,0
8.248,-20.4,-4.1,-1,-0.006,1.006,-0.042,0.01,-0.2,0.47,0
8.252,-20.2,-4.2,-1.2,-0.006,1.005,-0.044,0.01,-0.2,0.47,0
8.255,-19.9,-4.3,-1.5,-0.004,1.005,-0.047,0.01,-0.2,0.47,0
8.258,-19.5,-4.4,-1.6,-0.002,1.008,-0.05,0.01,-0.2,0.47,0
8.264,-19.1,-4.4,-2,-0.003,1.012,-0.051,0.02,-0.21,0.47,0.47
8.270,-18.5,-4.4,-2.3,-0.004,1.017,-0.051,0.02,-0.21,0.47,0.47
8.275,-18,-4.5,-2.5,-0.004,1.021,-0.048,0.02,-0.21,0.47,0.47
8.281,-17.2,-4.2,-2.9,-0.005,1.026,-0.044,0.02,-0.21,0.47,0.47
8.287,-16.7,-4.2,-3.2,-0.008,1.03,-0.038,0.02,-0.21,0.47,0.47
8.292,-16.4,-3.9,-3.3,-0.01,1.031,-0.035,0.02,-0.21,0.47,0.47
8.298,-16,-3.9,-3.5,-0.014,1.03,-0.03,0.02,-0.21,0.47,0.47
8.304,-16.1,-3.6,-3.6,-0.015,1.026,-0.025,0.02,-0.21,0.47,0.47
8.309,-16,-3.4,-3.7,-0.017,1.023,-0.022,0.04,-0.22,1.92,0.48
8.313,-16.4,-3.2,-3.8,-0.019,1.019,-0.02,0.04,-0.22,1.92,0.48
8.318,-16.7,-2.9,-3.8,-0.021,1.016,-0.019,0.04,-0.22,1.92,0.48
8.323,-17.2,-2.8,-3.6,-0.021,1.013,-0.018,0.04,-0.22,1.92,0.48
8.328,-17.4,-2.7,-3.9,-0.022,1.013,-0.019,0.04,-0.22,1.92,0.48
8.332,-17.4,-2.5,-3.7,-0.023,1.014,-0.022,0.04,-0.22,1.92,0.48
8.337,-17.1,-2.3,-3.8,-0.023,1.016,-0.023,0.04,-0.22,1.92,0.48
8.342,-16.9,-1.9,-3.9,-0.024,1.021,-0.024,0.04,-0.22,1.92,0.48
8.347,-16.7,-1.5,-3.8,-0.025,1.025,-0.023,0.04,-0.22,1.92,0.48
8.352,-16.2,-1.3,-3.6,-0.024,1.031,-0.021,0.04,-0.22,1.92,0.48
8.356,-16.1,-0.9,-3.6,-0.025,1.036,-0.019,0.04,-0.22,1.92,0.48
8.362,-15.6,-0.6,-3.6,-0.027,1.039,-0.014,0.04,-0.22,0.48,0
8.368,-15.6,-0.1,-3.4,-0.03,1.039,-0.009,0.04,-0.22,0.48,0
8.374,-15.1,0.1,-3.4,-0.033,1.039,-0.003,0.04,-0.22,0.48,0
8.380,-15,0.5,-3.2,-0.035,1.039,0.001,0.04,-0.22,0.48,0
8.386,-14.7,1,-3.2,-0.036,1.036,0.006,0.04,-0.22,0.48,0
8.392,-14.4,1.2,-3,-0.039,1.033,0.011,0.04,-0.22,0.48,0
8.398,-13.8,1.9,-2.9,-0.041,1.029,0.015,0.04,-0.22,0.48,0
8.402,-13.4,2.3,-2.6,-0.04,1.024,0.017,0.01,-0.25,0.48,0
8.407,-13,2.8,-2.6,-0.038,1.018,0.018,0.01,-0.25,0.48,0
8.411,-12.7,3,-2.8,-0.033,1.01,0.018,0.01,-0.25,0.48,0
8.415,-12.7,3.5,-2.8,-0.029,1.002,0.018,0.01,-0.25,0.48,0
8.420,-12.5,3.8,-2.7,-0.025,0.992,0.015,0.01,-0.25,0.48,0
8.424,-12.7,4.3,-2.9,-0.018,0.986,0.012,0.01,-0.25,0.48,0
8.429,-12.5,4.5,-2.8,-0.014,0.981,0.009,0.01,-0.25,0.48,0
8.433,-12.3,4.8,-2.8,-0.008,0.977,0.006,0.01,-0.25,0.48,0
8.438,-12.3,5.1,-2.8,-0.005,0.978,0.004,0.01,-0.25,0.48,0
8.442,-11.7,5.2,-3,-0.001,0.978,0.001,0.01,-0.25,0.48,0
8.446,-11.3,5.4,-3,-0.001,0.98,0,0.01,-0.25,0.48,0
8.453,-10.7,5.1,-3,0,0.983,0,0,-0.27,0.49,-0.98
8.460,-10.1,5.2,-3,0.001,0.983,0,0,-0.27,0.49,-0.98
8.467,-9.5,5,-2.9,0.002,0.983,-0.001,0,-0.27,0.49,-0.98
8.474,-8.9,4.8,-2.9,0.005,0.983,-0.002,0,-0.27,0.49,-0.98
8.481,-8.4,4.6,-2.7,0.008,0.984,-0.001,0,-0.27,0.49,-0.98
8.488,-7.8,4.3,-2.6,0.01,0.983,0,0,-0.27,0.49,-0.98
8.495,-7.3,3.8,-2.3,0.01,0.984,0,0,-0.27,0.49,-0.98
8.500,-6.9,3.5,-2.1,0.009,0.984,0,0.02,-0.3,0,0
8.504,-6.5,3,-1.8,0.007,0.985,0.002,0.02,-0.3,0,0
8.508,-5.9,2.7,-1.7,0.004,0.984,0.003,0.02,-0.3,0,0
8.513,-4.9,2.1,-1.3,0.001,0.984,0.005,0.02,-0.3,0,0
8.517,-4,1.6,-1.3,-0.001,0.984,0.006,0.02,-0.3,0,0
8.522,-3.2,1,-0.9,-0.004,0.984,0.006,0.02,-0.3,0,0
8.526,-2.4,0.7,-0.8,-0.008,0.983,0.007,0.02,-0.3,0,0
8.530,-1.7,0.2,-0.6,-0.011,0.984,0.008,0.02,-0.3,0,0
8.535,-1.2,-0.1,-0.5,-0.014,0.985,0.008,0.02,-0.3,0,0
8.539,-1.1,-0.6,-0.4,-0.013,0.985,0.006,0.02,-0.3,0,0
8.544,-0.7,-1.1,-0.5,-0.015,0.988,0.006,0.02,-0.3,0,0
8.550,-0.5,-1.6,-0.6,-0.017,0.991,0.005,0.01,-0.32,0,0
8.556,-0.3,-2,-0.6,-0.018,0.993,0.004,0.01,-0.32,0,0
8.562,-0.1,-2.4,-0.7,-0.021,0.995,0.001,0.01,-0.32,0,0
8.568,0.2,-2.8,-1,-0.024,0.997,0,0.01,-0.32,0,0
8.574,0.3,-3.2,-1.2,-0.025,0.997,0,0.01,-0.32,0,0
8.580,0.6,-3.4,-1.5,-0.025,0.998,0.001,0.01,-0.32,0,0
8.586,0.6,-4.1,-1.8,-0.024,0.999,0.003,0.01,-0.32,0,0
8.591,0.8,-4.4,-1.8,-0.025,0.999,0.004,0.01,-0.34,0,0.48
8.596,1,-4.7,-1.9,-0.024,1,0.007,0.01,-0.34,0,0.48
8.600,1.2,-4.6,-2,-0.022,1.001,0.01,0.01,-0.34,0,0.48
8.605,1.2,-4.7,-2,-0.019,1.002,0.011,0.01,-0.34,0,0.48
8.610,1.4,-4.9,-2.3,-0.018,1.004,0.012,0.01,-0.34,0,0.48
8.615,1.6,-5.1,-2.4,-0.015,1.006,0.013,0.01,-0.34,0,0.48
8.620,2.1,-5.3,-2.3,-0.017,1.009,0.012,0.01,-0.34,0,0.48
8.624,2.2,-5.5,-2.3,-0.017,1.01,0.01,0.01,-0.34,0,0.48
8.629,2.6,-5.5,-2.6,-0.017,1.013,0.006,0.01,-0.34,0,0.48
8.634,2.6,-5.7,-2.5,-0.018,1.015,0.004,0.01,-0.34,0,0.48
8.638,2.7,-5.9,-2.5,-0.019,1.017,0.002,-0.01,-0.36,0,0.48
8.643,2.9,-5.9,-2.5,-0.023,1.02,0.001,-0.01,-0.36,0,0.48
8.647,2.7,-6,-2.2,-0.025,1.021,-0.001,-0.01,-0.36,0,0.48
8.652,2.6,-6.2,-2.2,-0.026,1.022,-0.003,-0.01,-0.36,0,0.48
8.656,2.9,-6.4,-2,-0.027,1.023,-0.001,-0.01,-0.36,0,0.48
8.661,2.9,-6.2,-1.7,-0.026,1.024,0,-0.01,-0.36,0,0.48
8.665,3.1,-6,-1.5,-0.026,1.025,0.001,-0.01,-0.36,0,0.48
8.670,2.9,-5.8,-1,-0.026,1.026,0.003,-0.01,-0.36,0,0.48
8.674,2.9,-5.9,-0.9,-0.025,1.023,0.005,-0.01,-0.36,0,0.48
8.679,2.8,-5.5,-0.5,-0.024,1.023,0.007,-0.01,-0.36,0,0.48
8.683,2.8,-5.2,-0.2,-0.023,1.02,0.008,-0.01,-0.36,0,0.48
8.687,2.7,-4.6,-0.1,-0.023,1.016,0.008,-0.02,-0.37,-0.49,0.49
8.691,2.6,-4.2,0,-0.022,1.013,0.006,-0.02,-0.37,-0.49,0.49
8.695,2.4,-3.6,0,-0.021,1.009,0.005,-0.02,-0.37,-0.49,0.49
8.699,2,-3,0.2,-0.021,1.006,0.004,-0.02,-0.37,-0.49,0.49
8.703,1.6,-2.5,0,-0.022,1.004,0.002,-0.02,-0.37,-0.49,0.49
8.707,1.3,-2.1,0,-0.021,1.003,0.002,-0.02,-0.37,-0.49,0.49
8.711,1,-1.6,0.1,-0.022,1.003,0.001,-0.02,-0.37,-0.49,0.49
8.715,0.6,-1,0,-0.024,1.006,0.003,-0.02,-0.37,-0.49,0.49
8.719,0.3,-0.5,-0.3,-0.025,1.008,0.005,-0.02,-0.37,-0.49,0.49
8.724,-0.1,0,-0.3,-0.028,1.008,0.008,-0.02,-0.37,-0.49,0.49
8.728,-0.3,0.4,-0.4,-0.029,1.011,0.011,-0.02,-0.37,-0.49,0.49
8.734,-0.6,0.9,-0.6,-0.031,1.012,0.016,-0.04,-0.39,0,0
8.741,-0.6,1.2,-0.7,-0.033,1.014,0.019,-0.04,-0.39,0,0
8.747,-0.7,1.6,-0.4,-0.036,1.016,0.021,-0.04,-0.39,0,0
8.754,-0.6,1.6,-0.2,-0.035,1.018,0.022,-0.04,-0.39,0,0
8.760,-0.6,1.9,0.1,-0.035,1.021,0.023,-0.04,-0.39,0,0
8.767,-0.4,2,0.4,-0.032,1.024,0.021,-0.04,-0.39,0,0
8.774,-0.5,2.2,0.4,-0.029,1.026,0.021,-0.04,-0.39,0,0
8.778,-0.3,2.4,0.6,-0.027,1.031,0.017,-0.05,-0.39,0,0
8.782,-0.4,2.3,0.7,-0.027,1.032,0.013,-0.05,-0.39,0,0
8.787,-0.3,2.4,1,-0.025,1.031,0.009,-0.05,-0.39,0,0
8.791,-0.5,2.2,0.9,-0.026,1.031,0.005,-0.05,-0.39,0,0
8.795,-0.5,2.3,0.9,-0.026,1.031,0.001,-0.05,-0.39,0,0
8.800,-0.6,2.1,1,-0.025,1.032,0,-0.05,-0.39,0,0
8.804,-0.8,2,1,-0.027,1.032,-0.002,-0.05,-0.39,0,0
8.808,-0.4,1.6,1,-0.03,1.034,-0.002,-0.05,-0.39,0,0
8.813,-0.5,1.7,1,-0.032,1.037,0,-0.05,-0.39,0,0
8.817,-0.1,1.4,1,-0.032,1.04,0.002,-0.05,-0.39,0,0
8.821,0.2,1.2,0.7,-0.031,1.042,0.007,-0.05,-0.39,0,0
8.828,0.6,1.1,0.7,-0.031,1.043,0.012,-0.03,-0.39,0,0
8.835,1.2,1,0.7,-0.03,1.045,0.017,-0.03,-0.39,0,0
8.842,1.7,0.9,0.8,-0.029,1.044,0.02,-0.03,-0.39,0,0
8.849,2.4,0.6,0.6,-0.029,1.044,0.024,-0.03,-0.39,0,0
8.856,3.1,0.6,0.5,-0.031,1.042,0.025,-0.03,-0.39,0,0
8.863,3.9,0.5,0.6,-0.031,1.04,0.026,-0.03,-0.39,0,0
8.870,4.9,0.4,0.8,-0.029,1.037,0.026,-0.03,-0.39,0,0
8.875,6.1,0.3,0.7,-0.028,1.033,0.024,-0.01,-0.4,-0.96,0
8.879,7.3,0.4,0.6,-0.027,1.03,0.022,-0.01,-0.4,-0.96,0
8.883,8.4,0.5,0.7,-0.025,1.028,0.02,-0.01,-0.4,-0.96,0
8.888,9.8,0.7,0.5,-0.024,1.025,0.018,-0.01,-0.4,-0.96,0
8.892,11,0.7,0.3,-0.021,1.023,0.014,-0.01,-0.4,-0.96,0
8.897,12.3,0.9,-0.1,-0.017,1.022,0.012,-0.01,-0.4,-0.96,0
8.901,13.6,1.2,-0.4,-0.014,1.023,0.011,-0.01,-0.4,-0.96,0
8.905,14.5,1.5,-1.2,-0.013,1.024,0.01,-0.01,-0.4,-0.96,0
8.910,15.7,1.8,-2,-0.009,1.027,0.008,-0.01,-0.4,-0.96,0
8.914,17,2.2,-2.8,-0.009,1.033,0.006,-0.01,-0.4,-0.96,0
8.919,18.4,2.3,-3.5,-0.011,1.038,0.006,-0.01,-0.4,-0.96,0
8.925,20.1,2.5,-4,-0.013,1.043,0.006,0,-0.4,-0.48,0
8.931,21.9,2.8,-4.8,-0.014,1.048,0.004,0,-0.4,-0.48,0
8.937,23.8,2.7,-5.4,-0.015,1.05,0.002,0,-0.4,-0.48,0
8.942,25.7,2.9,-5.9,-0.017,1.052,0.001,0,-0.4,-0.48,0
8.948,28,2.9,-6.3,-0.019,1.052,0,0,-0.4,-0.48,0
8.954,29.8,2.9,-6.8,-0.02,1.05,-0.002,0,-0.4,-0.48,0
8.960,31.8,2.9,-6.9,-0.022,1.046,-0.007,0,-0.4,-0.48,0
8.965,33.6,2.9,-6.8,-0.021,1.043,-0.013,0.05,-0.4,-2.42,0
8.969,35.5,2.8,-7.1,-0.02,1.04,-0.018,0.05,-0.4,-2.42,0
8.974,37.4,2.9,-7.5,-0.019,1.038,-0.024,0.05,-0.4,-2.42,0
8.978,38.9,2.7,-7.7,-0.019,1.035,-0.032,0.05,-0.4,-2.42,0
8.983,40.7,2.7,-7.6,-0.021,1.033,-0.04,0.05,-0.4,-2.42,0
8.987,42.2,2.7,-7.8,-0.019,1.03,-0.047,0.05,-0.4,-2.42,0
8.992,43.7,2.7,-7.8,-0.018,1.028,-0.054,0.05,-0.4,-2.42,0
8.996,45.2,2.8,-8.1,-0.019,1.026,-0.06,0.05,-0.4,-2.42,0
9.000,46.5,2.8,-8.3,-0.017,1.025,-0.066,0.05,-0.4,-2.42,0
9.005,47.6,2.9,-8.6,-0.017,1.024,-0.07,0.05,-0.4,-2.42,0
9.009,48.7,3.2,-8.9,-0.019,1.023,-0.074,0.05,-0.4,-2.42,0
9.016,49.9,3.1,-8.9,-0.021,1.021,-0.078,0.06,-0.4,-1.92,0
9.023,50.8,3.1,-9.2,-0.023,1.019,-0.082,0.06,-0.4,-1.92,0
9.030,51.8,3.1,-9.3,-0.026,1.018,-0.085,0.06,-0.4,-1.92,0
9.037,53.2,3.2,-9.2,-0.029,1.016,-0.087,0.06,-0.4,-1.92,0
9.044,54.3,3.2,-9.2,-0.033,1.014,-0.089,0.06,-0.4,-1.92,0
9.051,55.5,3.1,-9,-0.037,1.011,-0.092,0.06,-0.4,-1.92,0
9.058,56.5,3,-8.7,-0.041,1.009,-0.097,0.06,-0.4,-1.92,0
9.061,57.7,2.9,-8.6,-0.044,1.007,-0.1,0.03,-0.42,-2.43,0
9.065,58.7,2.9,-8.2,-0.046,1.004,-0.102,0.03,-0.42,-2.43,0
9.069,59.4,2.9,-7.7,-0.046,1.002,-0.107,0.03,-0.42,-2.43,0
9.072,60.3,2.7,-7.6,-0.047,1,-0.112,0.03,-0.42,-2.43,0
9.076,61,2.9,-7.2,-0.047,1.001,-0.116,0.03,-0.42,-2.43,0
9.079,62,2.7,-7,-0.048,1.002,-0.121,0.03,-0.42,-2.43,0
9.083,62.6,2.8,-6.7,-0.049,1.003,-0.125,0.03,-0.42,-2.43,0
9.086,63.9,2.6,-6.4,-0.051,1.005,-0.129,0.03,-0.42,-2.43,0
9.090,65,3,-6.3,-0.052,1.005,-0.133,0.03,-0.42,-2.43,0
9.094,66.2,2.8,-6.3,-0.053,1.005,-0.138,0.03,-0.42,-2.43,0
9.097,67.7,3,-6.1,-0.055,1.004,-0.142,0.03,-0.42,-2.43,0
9.101,69,2.9,-6.2,-0.058,1.002,-0.146,0.03,-0.42,-2.43,0
9.104,70.4,3,-6.1,-0.059,1.002,-0.151,0.03,-0.42,-2.43,0
9.110,71.8,3.2,-6.2,-0.06,0.999,-0.155,0,-0.43,-5.28,-0.48
9.115,72.7,3.1,-5.7,-0.06,0.995,-0.16,0,-0.43,-5.28,-0.48
9.121,73.9,3.2,-5.9,-0.059,0.987,-0.165,0,-0.43,-5.28,-0.48
9.126,74.9,3.2,-5.8,-0.057,0.982,-0.17,0,-0.43,-5.28,-0.48
9.132,75.7,3.3,-5.6,-0.053,0.979,-0.176,0,-0.43,-5.28,-0.48
9.137,76.5,3.4,-5.4,-0.051,0.976,-0.181,0,-0.43,-5.28,-0.48
9.143,77.3,3.4,-5.3,-0.047,0.973,-0.187,0,-0.43,-5.28,-0.48
9.148,78.1,3.5,-5.1,-0.045,0.97,-0.193,0,-0.43,-5.28,-0.48
9.153,78.6,3.5,-5,-0.042,0.967,-0.199,0,-0.45,-2.83,0
9.158,79.7,3.7,-4.8,-0.041,0.965,-0.203,0,-0.45,-2.83,0
9.162,80.3,3.5,-4.5,-0.04,0.963,-0.206,0,-0.45,-2.83,0
9.167,81.2,3.6,-4.2,-0.039,0.961,-0.209,0,-0.45,-2.83,0
9.172,82.2,3.6,-4,-0.039,0.96,-0.213,0,-0.45,-2.83,0
9.176,83,3.5,-3.6,-0.04,0.957,-0.214,0,-0.45,-2.83,0
9.181,83.7,3.7,-3.6,-0.042,0.956,-0.214,0,-0.45,-2.83,0
9.186,84.8,3.7,-3.4,-0.044,0.953,-0.215,0,-0.45,-2.83,0
9.190,86,3.8,-3.1,-0.046,0.951,-0.216,0,-0.45,-2.83,0
9.195,87,3.8,-3,-0.052,0.947,-0.218,0,-0.45,-2.83,0
9.201,88.3,4,-2.9,-0.056,0.944,-0.22,0.02,-0.48,-2.89,0
9.206,89.3,4.2,-3,-0.059,0.941,-0.226,0.02,-0.48,-2.89,0
9.212,90.5,4.4,-3,-0.061,0.936,-0.232,0.02,-0.48,-2.89,0
9.217,91.7,4.9,-3.2,-0.062,0.933,-0.243,0.02,-0.48,-2.89,0
9.223,92.5,5.6,-3.6,-0.06,0.932,-0.256,0.02,-0.48,-2.89,0
9.228,93.1,6,-4.4,-0.053,0.932,-0.269,0.02,-0.48,-2.89,0
9.234,93.4,6.5,-5.7,-0.046,0.932,-0.283,0.02,-0.48,-2.89,0
9.240,93.6,7.3,-6.9,-0.039,0.936,-0.298,0.02,-0.48,-2.89,0
9.245,93.4,7.8,-8.6,-0.033,0.94,-0.313,0.02,-0.48,-2.89,0
9.250,93.1,8.3,-10.1,-0.028,0.945,-0.325,-0.01,-0.49,-3.25,0
9.255,93.1,8.6,-11.6,-0.027,0.949,-0.336,-0.01,-0.49,-3.25,0
9.260,92.9,9.1,-12.5,-0.028,0.954,-0.343,-0.01,-0.49,-3.25,0
9.265,93.3,9.1,-13.6,-0.032,0.956,-0.349,-0.01,-0.49,-3.25,0
9.270,93.6,9,-14.3,-0.036,0.958,-0.351,-0.01,-0.49,-3.25,0
9.275,94.1,8.8,-14.7,-0.04,0.957,-0.351,-0.01,-0.49,-3.25,0
9.280,94.5,8.8,-14.7,-0.045,0.95,-0.352,-0.01,-0.49,-3.25,0
9.285,94.9,8.3,-14.4,-0.046,0.942,-0.352,-0.01,-0.49,-3.25,0
9.289,95,8,-14,-0.047,0.931,-0.356,-0.01,-0.49,-3.25,0
9.294,94.9,7.6,-13,-0.049,0.919,-0.362,-0.01,-0.49,-3.25,0
9.300,94.5,7,-12.3,-0.049,0.906,-0.369,0,-0.51,-2.65,0
9.305,93.9,6.5,-11.8,-0.05,0.894,-0.381,0,-0.51,-2.65,0
9.310,93.3,5.6,-11.1,-0.052,0.883,-0.396,0,-0.51,-2.65,0
9.315,92.7,4.9,-10.4,-0.054,0.876,-0.413,0,-0.51,-2.65,0
9.320,92,4.2,-10,-0.057,0.87,-0.432,0,-0.51,-2.65,0
9.325,91,3.2,-9.7,-0.06,0.865,-0.451,0,-0.51,-2.65,0
9.331,90.2,2.5,-9.5,-0.061,0.861,-0.468,0,-0.51,-2.65,0
9.336,89.2,1.6,-9.2,-0.061,0.859,-0.484,0,-0.51,-2.65,0
9.341,88.2,0.7,-9.1,-0.062,0.86,-0.497,0,-0.52,-2.25,0
9.345,87.5,0.1,-8.9,-0.063,0.861,-0.506,0,-0.52,-2.25,0
9.350,86.6,-0.7,-8.7,-0.065,0.864,-0.512,0,-0.52,-2.25,0
9.355,85.8,-1.2,-8.7,-0.064,0.869,-0.516,0,-0.52,-2.25,0
9.360,85,-1.9,-8.6,-0.066,0.874,-0.517,0,-0.52,-2.25,0
9.365,84.1,-2.5,-8.1,-0.07,0.878,-0.515,0,-0.52,-2.25,0
9.370,83.3,-3,-7.5,-0.076,0.88,-0.517,0,-0.52,-2.25,0
9.374,82.3,-3.7,-6.5,-0.081,0.881,-0.518,0,-0.52,-2.25,0
9.379,81.5,-4.5,-5.7,-0.084,0.88,-0.52,0,-0.52,-2.25,0
9.384,80.8,-5,-4.6,-0.087,0.878,-0.521,0,-0.52,-2.25,0
9.389,80.1,-5.6,-3.7,-0.089,0.871,-0.525,0,-0.52,-1.69,0
9.394,79.7,-6.3,-3.2,-0.089,0.862,-0.531,0,-0.52,-1.69,0
9.399,79.2,-6.8,-2.3,-0.087,0.852,-0.54,0,-0.52,-1.69,0
9.404,78.6,-6.9,-1.4,-0.083,0.84,-0.549,0,-0.52,-1.69,0
9.409,78.1,-7.1,-0.8,-0.08,0.825,-0.561,0,-0.52,-1.69,0
9.414,77.3,-7.2,-0.3,-0.082,0.811,-0.575,0,-0.52,-1.69,0
9.418,76.5,-6.9,0.3,-0.083,0.801,-0.587,0,-0.52,-1.69,0
9.423,75.9,-6.7,0.4,-0.084,0.792,-0.598,0,-0.52,-1.69,0
9.428,75.1,-6.3,0.4,-0.086,0.785,-0.607,0,-0.52,-1.69,0
9.433,74.5,-5.8,0.1,-0.088,0.779,-0.615,0,-0.52,-1.69,0
9.439,73.7,-5.2,0.1,-0.092,0.778,-0.623,-0.02,-0.53,-1.35,0
9.445,73.1,-4.4,-0.1,-0.096,0.775,-0.628,-0.02,-0.53,-1.35,0
9.451,72.3,-3.6,-0.3,-0.099,0.774,-0.631,-0.02,-0.53,-1.35,0
9.457,71.7,-2.6,-0.4,-0.104,0.775,-0.633,-0.02,-0.53,-1.35,0
9.463,71.1,-1.7,-0.1,-0.107,0.775,-0.634,-0.02,-0.53,-1.35,0
9.469,70.3,-1.1,0.1,-0.111,0.777,-0.637,-0.02,-0.53,-1.35,0
9.475,69.4,-0.3,0.4,-0.114,0.777,-0.638,-0.02,-0.53,-1.35,0
9.481,68.5,0.2,1,-0.116,0.778,-0.644,-0.02,-0.53,-1.35,0
9.485,67.9,0.9,1.7,-0.115,0.779,-0.647,0,-0.53,-1.26,0
9.490,67.1,1.6,2,-0.116,0.779,-0.652,0,-0.53,-1.26,0
9.494,66.9,2.2,2.3,-0.114,0.778,-0.659,0,-0.53,-1.26,0
9.498,66.7,3,2.6,-0.111,0.778,-0.665,0,-0.53,-1.26,0
9.502,66.7,3.7,2.6,-0.107,0.776,-0.672,0,-0.53,-1.26,0
9.507,66.7,4.6,2.8,-0.102,0.772,-0.681,0,-0.53,-1.26,0
9.511,66.7,5.4,2.8,-0.098,0.766,-0.69,0,-0.53,-1.26,0
9.515,66.3,6.4,2.7,-0.094,0.761,-0.697,0,-0.53,-1.26,0
9.519,66.3,7.3,2.2,-0.091,0.756,-0.704,0,-0.53,-1.26,0
9.524,66.3,8.2,1.8,-0.089,0.75,-0.708,0,-0.53,-1.26,0
9.530,66.3,9.3,1.4,-0.087,0.745,-0.711,0.01,-0.53,-1.16,0
9.536,66.1,10.4,0.9,-0.085,0.737,-0.712,0.01,-0.53,-1.16,0
9.542,66.3,11.5,0.6,-0.085,0.727,-0.709,0.01,-0.53,-1.16,0
9.547,66.1,12.7,0.1,-0.084,0.719,-0.708,0.01,-0.53,-1.16,0
9.553,66,13.6,0,-0.082,0.71,-0.707,0.01,-0.53,-1.16,0
9.559,65.9,14.8,-0.1,-0.08,0.702,-0.706,0.01,-0.53,-1.16,0
9.565,66.1,15.9,-0.3,-0.078,0.694,-0.706,0.01,-0.53,-1.16,0
9.571,66.1,17.1,-0.1,-0.076,0.689,-0.705,0.01,-0.53,-1.16,0
9.575,66.3,18.1,-0.1,-0.076,0.684,-0.707,0,-0.53,-1.13,-0.22
9.578,66,18.9,-0.1,-0.076,0.679,-0.709,0,-0.53,-1.13,-0.22
9.582,65.8,19.5,-0.1,-0.074,0.674,-0.713,0,-0.53,-1.13,-0.22
9.585,65.2,19.8,-0.1,-0.073,0.669,-0.72,0,-0.53,-1.13,-0.22
9.589,64.5,20.3,-0.1,-0.071,0.666,-0.728,0,-0.53,-1.13,-0.22
9.592,63.7,20.3,-0.1,-0.071,0.667,-0.737,0,-0.53,-1.13,-0.22
9.595,63.1,20.3,-0.3,-0.071,0.668,-0.746,0,-0.53,-1.13,-0.22
9.599,62.8,20,-0.4,-0.073,0.674,-0.752,0,-0.53,-1.13,-0.22
9.602,63.2,19.6,-0.7,-0.076,0.684,-0.758,0,-0.53,-1.13,-0.22
9.606,63.9,18.9,-0.9,-0.079,0.695,-0.764,0,-0.53,-1.13,-0.22
9.609,65,18.1,-0.7,-0.08,0.705,-0.767,0,-0.53,-1.13,-0.22
9.613,66.2,17.4,-0.6,-0.081,0.712,-0.771,0,-0.53,-1.13,-0.22
9.616,67.2,16.5,-0.3,-0.081,0.715,-0.774,0,-0.53,-1.13,-0.22
9.620,68.2,15.7,0.3,-0.077,0.713,-0.776,0,-0.53,-1.13,-0.22
9.626,69.2,15,0.6,-0.072,0.709,-0.779,-0.01,-0.52,-1.07,-0.21
9.632,69.7,14.3,0.9,-0.066,0.702,-0.779,-0.01,-0.52,-1.07,-0.21
9.639,70.4,13.7,1.7,-0.059,0.694,-0.777,-0.01,-0.52,-1.07,-0.21
9.645,70.8,13.2,2.1,-0.051,0.68,-0.776,-0.01,-0.52,-1.07,-0.21
9.652,70.9,12.9,2.4,-0.043,0.664,-0.778,-0.01,-0.52,-1.07,-0.21
9.658,71,12.5,2.7,-0.036,0.649,-0.781,-0.01,-0.52,-1.07,-0.21
9.665,70.9,12.5,3.2,-0.03,0.63,-0.787,-0.01,-0.52,-1.07,-0.21
9.669,70.4,12.3,3.6,-0.025,0.613,-0.792,-0.01,-0.53,-1.04,-0.2
9.673,69.9,12,3.6,-0.02,0.596,-0.8,-0.01,-0.53,-1.04,-0.2
9.677,69.6,11.7,3.4,-0.017,0.581,-0.808,-0.01,-0.53,-1.04,-0.2
9.681,69.4,11.6,3.3,-0.014,0.568,-0.816,-0.01,-0.53,-1.04,-0.2
9.686,69.3,11.2,3.1,-0.012,0.558,-0.822,-0.01,-0.53,-1.04,-0.2
9.690,69.3,10.7,2.5,-0.013,0.55,-0.828,-0.01,-0.53,-1.04,-0.2
9.694,69.4,10.1,2.3,-0.013,0.544,-0.832,-0.01,-0.53,-1.04,-0.2
9.698,69,9.5,1.9,-0.014,0.541,-0.836,-0.01,-0.53,-1.04,-0.2
9.702,69.1,9,1.4,-0.016,0.542,-0.839,-0.01,-0.53,-1.04,-0.2
9.707,68.9,8.1,0.9,-0.019,0.544,-0.841,-0.01,-0.53,-1.04,-0.2
9.711,68.9,7.4,1.4,-0.025,0.547,-0.843,-0.01,-0.53,-1.04,-0.2
9.718,68.9,6.9,1.5,-0.031,0.553,-0.846,0,-0.53,-0.96,-0.19
9.725,68.7,6,1.9,-0.037,0.557,-0.848,0,-0.53,-0.96,-0.19
9.731,68.4,5.2,2.6,-0.043,0.559,-0.849,0,-0.53,-0.96,-0.19
9.738,68.1,4.5,3.2,-0.05,0.559,-0.851,0,-0.53,-0.96,-0.19
9.745,67.6,3.8,4.2,-0.053,0.558,-0.853,0,-0.53,-0.96,-0.19
9.752,67.7,3.4,5.1,-0.056,0.554,-0.854,0,-0.53,-0.96,-0.19
9.759,67.7,2.7,5.8,-0.059,0.551,-0.855,0,-0.53,-0.96,-0.19
9.763,68.1,2.2,6.5,-0.06,0.545,-0.857,0.01,-0.53,-0.98,0
9.768,68,1.4,7.2,-0.059,0.537,-0.861,0.01,-0.53,-0.98,0
9.772,68.1,0.9,7.8,-0.055,0.528,-0.866,0.01,-0.53,-0.98,0
9.777,67.9,0.5,8,-0.049,0.519,-0.871,0.01,-0.53,-0.98,0
9.781,67.6,0,8.1,-0.043,0.507,-0.875,0.01,-0.53,-0.98,0
9.786,67,-0.2,7.9,-0.034,0.496,-0.88,0.01,-0.53,-0.98,0
9.790,66.2,-0.6,7.6,-0.024,0.483,-0.883,0.01,-0.53,-0.98,0
9.795,65.2,-0.6,7.4,-0.016,0.469,-0.886,0.01,-0.53,-0.98,0
9.799,63.9,-0.6,6.8,-0.011,0.457,-0.89,0.01,-0.53,-0.98,0
9.804,62.4,-0.7,6.2,-0.008,0.445,-0.892,0.01,-0.53,-0.98,0
9.808,61,-0.6,5.6,-0.007,0.436,-0.895,0.01,-0.53,-0.98,0
9.815,59.9,-0.5,5,-0.008,0.429,-0.9,0.04,-0.54,-0.96,0
9.822,58.9,-0.3,4.3,-0.009,0.426,-0.902,0.04,-0.54,-0.96,0
9.829,58,-0.3,3.7,-0.01,0.421,-0.904,0.04,-0.54,-0.96,0
9.835,57.1,0,3.2,-0.011,0.416,-0.905,0.04,-0.54,-0.96,0
9.842,56.5,0.3,2.6,-0.011,0.411,-0.907,0.04,-0.54,-0.96,0
9.849,55.5,0.7,2.2,-0.013,0.408,-0.909,0.04,-0.54,-0.96,0
9.856,55,1.1,2.1,-0.015,0.406,-0.911,0.04,-0.54,-0.96,0
9.860,54.6,1.5,2.1,-0.017,0.404,-0.912,0.04,0.1,-0.55,0
9.864,54.3,1.8,2.5,-0.02,0.407,-0.912,0.04,0.1,-0.55,0
9.867,54,2.4,2.3,-0.023,0.409,-0.913,0.04,0.1,-0.55,0
9.871,53.8,2.8,2.5,-0.028,0.41,-0.916,0.04,0.1,-0.55,0
9.875,53.3,3.1,2.5,-0.03,0.41,-0.917,0.04,0.1,-0.55,0
9.879,52.6,3.4,2.6,-0.033,0.407,-0.919,0.04,0.1,-0.55,0
9.883,51.9,3.8,2.8,-0.035,0.404,-0.922,0.04,0.1,-0.55,0
9.886,50.8,3.8,3.2,-0.036,0.4,-0.924,0.04,0.1,-0.55,0
9.890,49.9,4,3.6,-0.037,0.393,-0.926,0.04,0.1,-0.55,0
9.894,48.8,4,3.7,-0.036,0.385,-0.929,0.04,0.1,-0.55,0
9.898,47.7,3.8,3.7,-0.035,0.378,-0.932,0.04,0.1,-0.55,0
9.905,46.9,4,4,-0.034,0.368,-0.933,0.04,0.12,-0.9,0
9.912,46.1,3.9,3.7,-0.031,0.36,-0.934,0.04,0.12,-0.9,0
9.919,45.4,3.8,3.8,-0.028,0.35,-0.934,0.04,0.12,-0.9,0
9.926,44.6,3.9,3.5,-0.025,0.341,-0.937,0.04,0.12,-0.9,0
9.933,43.9,3.9,3.2,-0.02,0.331,-0.938,0.04,0.12,-0.9,0
9.940,43.5,4.2,2.8,-0.017,0.324,-0.938,0.04,0.12,-0.9,0
9.947,42.9,4.3,2.3,-0.015,0.319,-0.94,0.04,0.12,-0.9,0
9.951,42.4,5,2,-0.014,0.317,-0.94,0,0.13,-0.71,-0.17
9.956,41.9,5.1,1.5,-0.015,0.316,-0.941,0,0.13,-0.71,-0.17
9.960,41.4,5.9,1.1,-0.016,0.318,-0.94,0,0.13,-0.71,-0.17
9.964,41.3,6.3,0.8,-0.018,0.32,-0.939,0,0.13,-0.71,-0.17
9.969,41,6.8,0.9,-0.022,0.323,-0.94,0,0.13,-0.71,-0.17
9.973,40.8,7.1,0.9,-0.024,0.328,-0.941,0,0.13,-0.71,-0.17
9.978,40.7,7.6,1,-0.026,0.333,-0.942,0,0.13,-0.71,-0.17
9.982,40.5,7.7,1.2,-0.027,0.337,-0.943,0,0.13,-0.71,-0.17
9.987,40.6,7.9,1.5,-0.029,0.339,-0.946,0,0.13,-0.71,-0.17
9.991,40.3,8.2,1.7,-0.028,0.34,-0.947,0,0.13,-0.71,-0.17
9.996,39.9,8,1.8,-0.026,0.338,-0.95,0,0.13,-0.71,-0.17
10.000,39.6,8,2.5,-0.023,0.336,-0.952,0.01,0.14,-0.53,-0.17
10.004,39.5,8,2.9,-0.02,0.33,-0.954,0.01,0.14,-0.53,-0.17
10.009,39.5,7.9,3.1,-0.016,0.326,-0.957,0.01,0.14,-0.53,-0.17
10.013,39.4,7.9,3.4,-0.013,0.319,-0.958,0.01,0.14,-0.53,-0.17
10.017,39.1,7.4,3.4,-0.011,0.312,-0.961,0.01,0.14,-0.53,-0.17
10.021,39.1,7.4,3.4,-0.008,0.303,-0.964,0.01,0.14,-0.53,-0.17
10.026,38.9,7.3,3.1,-0.005,0.294,-0.964,0.01,0.14,-0.53,-0.17
10.030,38.8,7,3.1,-0.001,0.286,-0.964,0.01,0.14,-0.53,-0.17
10.034,38.9,7,2.9,0,0.281,-0.964,0.01,0.14,-0.53,-0.17
10.038,39,7,2.8,0.002,0.277,-0.963,0.01,0.14,-0.53,-0.17
10.043,39.3,7,2.8,0.004,0.274,-0.962,0.01,0.14,-0.53,-0.17
10.049,39.4,7.1,2.5,0.005,0.27,-0.961,0.02,0.15,-0.54,0
10.055,39.6,7.2,2.6,0.005,0.269,-0.959,0.02,0.15,-0.54,0
10.061,39.7,7.4,2.9,0.002,0.265,-0.96,0.02,0.15,-0.54,0
10.067,39.8,7.3,3.1,-0.001,0.265,-0.96,0.02,0.15,-0.54,0
10.073,40.1,7.2,3.5,-0.006,0.266,-0.96,0.02,0.15,-0.54,0
10.080,40.3,7.2,3.8,-0.008,0.268,-0.959,0.02,0.15,-0.54,0
10.086,40.8,7,4,-0.01,0.271,-0.959,0.02,0.15,-0.54,0
10.090,41,7,4.3,-0.011,0.274,-0.961,0.05,0.15,-0.7,0
10.095,41.1,6.6,4.7,-0.011,0.272,-0.964,0.05,0.15,-0.7,0
10.100,41.2,6.2,5,-0.011,0.271,-0.969,0.05,0.15,-0.7,0
10.105,41.1,5.7,5,-0.01,0.269,-0.972,0.05,0.15,-0.7,0
10.110,41.4,5.4,5.5,-0.008,0.268,-0.973,0.05,0.15,-0.7,0
10.114,41.6,4.9,5.5,-0.007,0.266,-0.973,0.05,0.15,-0.7,0
10.119,42.3,4.6,5.6,-0.005,0.265,-0.971,0.05,0.15,-0.7,0
10.124,43.1,4,5.7,-0.001,0.26,-0.969,0.05,0.15,-0.7,0
10.129,43.7,3.8,5.6,0.003,0.254,-0.967,0.05,0.15,-0.7,0
10.134,44.4,3.4,5.3,0.009,0.25,-0.964,0.05,0.15,-0.7,0
10.138,45,3,4.9,0.013,0.245,-0.961,0.02,0.13,-0.52,-0.17
10.142,45.7,2.9,4.3,0.017,0.242,-0.959,0.02,0.13,-0.52,-0.17
10.146,46.6,2.5,3.7,0.022,0.241,-0.957,0.02,0.13,-0.52,-0.17
10.150,47.1,2.6,3.1,0.023,0.238,-0.956,0.02,0.13,-0.52,-0.17
10.155,47.2,2.6,2.6,0.024,0.233,-0.957,0.02,0.13,-0.52,-0.17
10.159,47.4,2.4,2.1,0.022,0.228,-0.958,0.02,0.13,-0.52,-0.17
10.163,47,2,2.3,0.019,0.222,-0.963,0.02,0.13,-0.52,-0.17
10.167,46.6,1.9,2.4,0.013,0.214,-0.968,0.02,0.13,-0.52,-0.17
10.172,46.1,1.5,2.8,0.008,0.207,-0.974,0.02,0.13,-0.52,-0.17
10.176,45.8,1.3,3.3,0,0.201,-0.98,0.02,0.13,-0.52,-0.17
10.180,45.7,0.9,3.6,-0.007,0.196,-0.985,0.02,0.13,-0.52,-0.17
10.187,45.7,0.3,4.2,-0.011,0.193,-0.99,0.03,0.13,-0.69,0
10.195,45.8,0,4.5,-0.015,0.186,-0.995,0.03,0.13,-0.69,0
10.202,46.1,-0.5,4.8,-0.017,0.179,-0.999,0.03,0.13,-0.69,0
10.209,46.4,-1,5.2,-0.019,0.174,-1.002,0.03,0.13,-0.69,0
10.216,46.8,-1.7,5.6,-0.02,0.167,-1.004,0.03,0.13,-0.69,0
10.224,47.1,-2.2,5.8,-0.019,0.163,-1.006,0.03,0.13,-0.69,0
10.231,47.8,-2.8,5.7,-0.017,0.161,-1.006,0.03,0.13,-0.69,0
10.235,48.2,-3.4,5.6,-0.011,0.159,-1.004,0.06,0.12,-0.68,0.17
10.239,48.6,-3.7,5.4,-0.004,0.158,-1.004,0.06,0.12,-0.68,0.17
10.242,48.7,-4.2,4.9,0.002,0.159,-1.003,0.06,0.12,-0.68,0.17
10.246,48.7,-4.4,4.3,0.01,0.157,-1.002,0.06,0.12,-0.68,0.17
10.250,48.5,-4.8,3.7,0.016,0.156,-1,0.06,0.12,-0.68,0.17
10.254,48.2,-4.8,3.3,0.02,0.153,-0.998,0.06,0.12,-0.68,0.17
10.258,48,-4.9,2.7,0.023,0.153,-0.997,0.06,0.12,-0.68,0.17
10.262,47.8,-4.9,2.4,0.023,0.152,-0.997,0.06,0.12,-0.68,0.17
10.265,47.4,-4.8,2,0.022,0.148,-0.997,0.06,0.12,-0.68,0.17
10.269,47.1,-4.8,1.7,0.018,0.143,-0.997,0.06,0.12,-0.68,0.17
10.273,46.8,-4.8,1.5,0.013,0.135,-0.998,0.06,0.12,-0.68,0.17
10.280,46.3,-4.9,1.4,0.009,0.127,-0.999,0.07,0.12,-0.68,0
10.287,45.8,-4.5,1.5,0.003,0.118,-1.003,0.07,0.12,-0.68,0
10.294,45.4,-4.5,1.4,-0.002,0.11,-1.006,0.07,0.12,-0.68,0
10.301,44.9,-4.5,1.4,-0.006,0.103,-1.008,0.07,0.12,-0.68,0
10.308,44.7,-4.5,1.2,-0.01,0.096,-1.008,0.07,0.12,-0.68,0
10.315,44.4,-4.6,1.2,-0.012,0.091,-1.008,0.07,0.12,-0.68,0
10.322,44.2,-4.2,1,-0.012,0.085,-1.009,0.07,0.12,-0.68,0
10.326,44.1,-4.1,0.8,-0.013,0.081,-1.007,0.06,0.11,-0.51,0
10.331,43.8,-3.9,0.6,-0.011,0.078,-1.008,0.06,0.11,-0.51,0
10.335,43.6,-3.7,0.3,-0.01,0.073,-1.009,0.06,0.11,-0.51,0
10.340,43.3,-3.4,0.1,-0.01,0.068,-1.011,0.06,0.11,-0.51,0
10.344,42.9,-3.3,-0.3,-0.008,0.065,-1.012,0.06,0.11,-0.51,0
10.348,42.7,-3.3,-0.4,-0.008,0.062,-1.013,0.06,0.11,-0.51,0
10.353,42.5,-3.3,-0.7,-0.006,0.058,-1.012,0.06,0.11,-0.51,0
10.357,42.2,-3.1,-1,-0.004,0.054,-1.01,0.06,0.11,-0.51,0
10.362,41.9,-2.8,-1.2,-0.002,0.051,-1.008,0.06,0.11,-0.51,0
10.366,41.2,-2.6,-1.5,0,0.046,-1.006,0.06,0.11,-0.51,0
10.371,40.8,-2.4,-1.5,0.002,0.041,-1.005,0.06,0.11,-0.51,0
10.376,39.9,-1.9,-1.5,0.002,0.034,-1.004,0.04,0.1,-0.51,0.17
10.381,38.8,-1.8,-1.4,0.002,0.027,-1.004,0.04,0.1,-0.51,0.17
10.386,37.6,-1.5,-1.2,0.001,0.02,-1.008,0.04,0.1,-0.51,0.17
10.392,36.3,-1.2,-0.9,0,0.015,-1.011,0.04,0.1,-0.51,0.17
10.397,35.2,-1.1,-0.8,0,0.01,-1.015,0.04,0.1,-0.51,0.17
10.402,34.2,-0.8,-0.5,-0.002,0.008,-1.014,0.04,0.1,-0.51,0.17
10.408,33.3,-0.5,-0.2,-0.006,0.005,-1.015,0.04,0.1,-0.51,0.17
10.413,32.5,-0.1,-0.2,-0.009,0.003,-1.015,0.04,0.1,-0.51,0.17
10.418,31.8,0,-0.3,-0.009,-0.002,-1.015,0.04,0.1,-0.51,0.17
10.423,31.2,0.1,-0.3,-0.009,-0.005,-1.013,0.04,0.09,-0.33,0
10.428,30.9,0.4,-0.6,-0.007,-0.007,-1.01,0.04,0.09,-0.33,0
10.432,30.6,0.8,-0.9,-0.006,-0.005,-1.009,0.04,0.09,-0.33,0
10.437,30.9,1.1,-1.2,-0.005,0,-1.009,0.04,0.09,-0.33,0
10.442,31.4,1.5,-1.7,-0.003,0.004,-1.008,0.04,0.09,-0.33,0
10.447,32.1,2,-2.2,-0.003,0.009,-1.007,0.04,0.09,-0.33,0
10.451,32.5,2.2,-2.4,0,0.013,-1.007,0.04,0.09,-0.33,0
10.456,33,2.6,-2.5,0.002,0.013,-1.008,0.04,0.09,-0.33,0
10.461,33.2,2.8,-2.8,0.001,0.014,-1.009,0.04,0.09,-0.33,0
10.467,33.6,3.1,-2.6,0.002,0.016,-1.009,0,0.09,-0.5,0
10.473,33.7,3.4,-2.4,0,0.017,-1.01,0,0.09,-0.5,0
10.479,34,3.5,-2.1,-0.002,0.016,-1.011,0,0.09,-0.5,0
10.485,34.4,3.7,-1.7,-0.003,0.013,-1.012,0,0.09,-0.5,0
10.491,34.7,3.8,-1.4,-0.005,0.011,-1.014,0,0.09,-0.5,0
10.497,35,4.2,-1.1,-0.008,0.005,-1.017,0,0.09,-0.5,0
10.503,35.2,4.1,-0.8,-0.007,-0.001,-1.019,0,0.09,-0.5,0
10.509,35.8,4.2,-0.7,-0.008,-0.011,-1.021,0,0.09,-0.5,0
10.513,36,4.5,-0.4,-0.007,-0.019,-1.023,-0.05,0.07,-0.5,0
10.517,36.3,4.6,-0.1,-0.005,-0.031,-1.024,-0.05,0.07,-0.5,0
10.521,36.6,4.7,-0.3,-0.006,-0.038,-1.024,-0.05,0.07,-0.5,0
10.524,36.7,4.6,-0.4,-0.005,-0.047,-1.023,-0.05,0.07,-0.5,0
10.528,37.1,4.8,-0.6,-0.004,-0.051,-1.019,-0.05,0.07,-0.5,0
10.532,37.6,4.8,-0.7,-0.002,-0.054,-1.014,-0.05,0.07,-0.5,0
10.536,38,4.8,-1.2,-0.001,-0.056,-1.009,-0.05,0.07,-0.5,0
10.539,38.3,4.8,-1.5,0.001,-0.057,-1.007,-0.05,0.07,-0.5,0
10.543,38.4,4.8,-1.6,0.002,-0.059,-1.007,-0.05,0.07,-0.5,0
10.547,38.5,4.8,-1.8,0.003,-0.062,-1.008,-0.05,0.07,-0.5,0
10.551,38.5,4.7,-1.5,0.004,-0.061,-1.008,-0.05,0.07,-0.5,0
10.554,38.6,4.6,-1.5,0.006,-0.061,-1.009,-0.05,0.07,-0.5,0
10.558,38.8,4.5,-1.1,0.007,-0.06,-1.01,-0.05,0.07,-0.5,0
10.563,39,4.4,-0.7,0.007,-0.061,-1.012,-0.04,0.07,-1.01,-0.16
10.568,39.4,4.1,-0.3,0.007,-0.061,-1.013,-0.04,0.07,-1.01,-0.16
10.573,39.7,4.1,-0.1,0.008,-0.063,-1.016,-0.04,0.07,-1.01,-0.16
10.578,40.3,4,0.3,0.009,-0.065,-1.018,-0.04,0.07,-1.01,-0.16
10.583,41,3.7,0.5,0.008,-0.068,-1.02,-0.04,0.07,-1.01,-0.16
10.588,41.7,3.5,1,0.006,-0.073,-1.021,-0.04,0.07,-1.01,-0.16
10.593,42.2,3.2,0.9,0.006,-0.078,-1.02,-0.04,0.07,-1.01,-0.16
10.598,42.9,2.9,1,0.006,-0.085,-1.018,-0.04,0.07,-1.01,-0.16
10.604,43.4,2.9,1.1,0.006,-0.09,-1.016,-0.04,0.07,-1.01,-0.16
10.613,44.1,2.6,1.2,0.008,-0.095,-1.014,-0.04,0.06,-0.67,0
10.622,44.7,2.5,1,0.011,-0.099,-1.01,-0.04,0.06,-0.67,0
10.631,45.5,2.3,1,0.013,-0.103,-1.006,-0.04,0.06,-0.67,0
10.640,46.3,2.1,0.7,0.017,-0.105,-1.003,-0.04,0.06,-0.67,0
10.649,46.9,1.9,0.5,0.018,-0.109,-0.999,-0.04,0.06,-0.67,0
10.652,47.6,1.5,0.3,0.02,-0.114,-0.996,-0.01,0.04,-0.51,0
10.655,48.2,1.6,-0.1,0.021,-0.117,-0.995,-0.01,0.04,-0.51,0
10.658,48.5,1.3,-0.4,0.02,-0.119,-0.993,-0.01,0.04,-0.51,0
10.661,48.9,1.3,-0.6,0.022,-0.124,-0.992,-0.01,0.04,-0.51,0
10.665,48.8,1.2,-1,0.021,-0.13,-0.993,-0.01,0.04,-0.51,0
10.668,48.8,1.2,-1.3,0.018,-0.136,-0.994,-0.01,0.04,-0.51,0
10.671,48.6,0.9,-1.3,0.015,-0.141,-0.995,-0.01,0.04,-0.51,0
10.674,48.5,1,-1.2,0.012,-0.147,-0.999,-0.01,0.04,-0.51,0
10.677,48.5,0.9,-1.2,0.011,-0.155,-1.002,-0.01,0.04,-0.51,0
10.680,48,1,-1.1,0.007,-0.159,-1.005,-0.01,0.04,-0.51,0
10.684,48.1,1,-1,0.004,-0.164,-1.009,-0.01,0.04,-0.51,0
10.687,48.2,1,-0.9,0.002,-0.169,-1.012,-0.01,0.04,-0.51,0
10.690,48.3,1.2,-0.6,0,-0.173,-1.013,-0.01,0.04,-0.51,0
10.693,48.4,0.9,-0.6,-0.001,-0.179,-1.014,-0.01,0.04,-0.51,0
10.696,48.5,0.9,-0.5,-0.001,-0.186,-1.015,-0.01,0.04,-0.51,0
10.703,48.8,0.9,-0.5,-0.001,-0.191,-1.014,-0.01,0.04,-1.19,0
10.710,48.8,0.8,-0.5,0.001,-0.197,-1.012,-0.01,0.04,-1.19,0
10.717,49.1,0.8,-0.4,0.005,-0.201,-1.008,-0.01,0.04,-1.19,0
10.724,49.3,0.9,-0.6,0.008,-0.205,-1.004,-0.01,0.04,-1.19,0
10.731,49.5,0.7,-0.7,0.011,-0.208,-1,-0.01,0.04,-1.19,0
10.738,50,0.8,-0.8,0.013,-0.211,-0.995,-0.01,0.04,-1.19,0
10.745,50.1,0.5,-0.7,0.017,-0.213,-0.991,-0.01,0.04,-1.19,0
10.750,50.6,0.6,-0.8,0.019,-0.216,-0.985,-0.01,0.02,-0.67,0
10.754,50.9,0.5,-0.9,0.021,-0.219,-0.984,-0.01,0.02,-0.67,0
10.758,50.9,0.5,-1.2,0.022,-0.221,-0.981,-0.01,0.02,-0.67,0
10.763,51.3,0.4,-1.4,0.022,-0.225,-0.979,-0.01,0.02,-0.67,0
10.767,51.1,0.4,-1.5,0.023,-0.23,-0.978,-0.01,0.02,-0.67,0
10.771,50.8,0.5,-1.7,0.023,-0.236,-0.978,-0.01,0.02,-0.67,0
10.776,50.7,0.7,-2,0.023,-0.241,-0.978,-0.01,0.02,-0.67,0
10.780,50.5,0.8,-2.2,0.021,-0.247,-0.979,-0.01,0.02,-0.67,0
10.785,50.4,1.1,-2.3,0.019,-0.253,-0.977,-0.01,0.02,-0.67,0
10.789,50.3,1.3,-2.5,0.016,-0.257,-0.975,-0.01,0.02,-0.67,0
10.793,50.4,1.6,-2.7,0.014,-0.262,-0.974,-0.01,0.02,-0.67,0
10.799,50.6,1.8,-2.8,0.011,-0.267,-0.973,-0.03,0.02,-1.4,0
10.806,51,2,-2.8,0.01,-0.269,-0.972,-0.03,0.02,-1.4,0
10.812,51.2,2,-2.9,0.007,-0.273,-0.972,-0.03,0.02,-1.4,0
10.818,51.6,2.3,-2.8,0.004,-0.276,-0.973,-0.03,0.02,-1.4,0
10.824,52.1,2.5,-2.7,0.003,-0.28,-0.974,-0.03,0.02,-1.4,0
10.830,52.2,2.4,-2.5,0.001,-0.284,-0.973,-0.03,0.02,-1.4,0
10.836,52.3,2.5,-2.4,0.001,-0.287,-0.973,-0.03,0.02,-1.4,0
10.840,52.6,2.6,-2.1,0.002,-0.291,-0.971,-0.05,0.02,-0.71,-0.17
10.845,52.5,2.6,-2,0.003,-0.294,-0.971,-0.05,0.02,-0.71,-0.17
10.849,52.7,2.5,-1.8,0.003,-0.297,-0.968,-0.05,0.02,-0.71,-0.17
10.853,52.7,2.4,-1.7,0.006,-0.302,-0.966,-0.05,0.02,-0.71,-0.17
10.858,52.9,2.4,-1.7,0.009,-0.305,-0.965,-0.05,0.02,-0.71,-0.17
10.862,53.1,2.4,-2,0.013,-0.31,-0.962,-0.05,0.02,-0.71,-0.17
10.866,53.5,2.5,-1.8,0.017,-0.313,-0.959,-0.05,0.02,-0.71,-0.17
10.871,53.8,2.7,-2,0.02,-0.316,-0.955,-0.05,0.02,-0.71,-0.17
10.875,54.3,2.6,-2.1,0.023,-0.321,-0.952,-0.05,0.02,-0.71,-0.17
10.879,54.8,2.7,-2.4,0.025,-0.325,-0.949,-0.05,0.02,-0.71,-0.17
10.884,55.3,2.9,-2.6,0.026,-0.329,-0.948,-0.05,0.02,-0.71,-0.17
10.891,55.7,3,-2.8,0.027,-0.335,-0.948,-0.07,0.01,-1.43,0
10.898,55.7,3.1,-2.9,0.028,-0.344,-0.948,-0.07,0.01,-1.43,0
10.905,55.9,3,-2.8,0.028,-0.351,-0.949,-0.07,0.01,-1.43,0
10.912,56.2,3.3,-2.6,0.028,-0.357,-0.948,-0.07,0.01,-1.43,0
10.919,56.3,3.2,-2.3,0.026,-0.362,-0.945,-0.07,0.01,-1.43,0
10.926,56.6,3.1,-1.8,0.025,-0.365,-0.943,-0.07,0.01,-1.43,0
10.933,56.9,2.9,-1.6,0.022,-0.369,-0.939,-0.07,0.01,-1.43,0
10.937,57.1,2.9,-1,0.022,-0.374,-0.935,-0.03,0.01,-1.46,-0.18
10.941,57.2,2.4,-0.9,0.02,-0.381,-0.933,-0.03,0.01,-1.46,-0.18
10.946,57.4,2.2,-0.4,0.02,-0.387,-0.931,-0.03,0.01,-1.46,-0.18
10.950,57.3,2.1,-0.2,0.021,-0.396,-0.93,-0.03,0.01,-1.46,-0.18
10.955,57.3,1.6,0,0.022,-0.404,-0.928,-0.03,0.01,-1.46,-0.18
10.959,57.7,1,0.4,0.026,-0.41,-0.927,-0.03,0.01,-1.46,-0.18
10.963,57.9,0.7,0.4,0.032,-0.415,-0.928,-0.03,0.01,-1.46,-0.18
10.968,58.5,0.1,0.6,0.037,-0.419,-0.928,-0.03,0.01,-1.46,-0.18
10.972,59,-0.3,0.7,0.043,-0.424,-0.929,-0.03,0.01,-1.46,-0.18
10.977,59.7,-0.8,1,0.047,-0.429,-0.927,-0.03,0.01,-1.46,-0.18
10.981,60.2,-1.3,0.9,0.049,-0.434,-0.923,-0.03,0.01,-1.46,-0.18
10.987,60.6,-1.6,0.9,0.052,-0.438,-0.918,-0.03,0,-1.7,-0.18
10.993,61.1,-2.2,0.6,0.052,-0.44,-0.914,-0.03,0,-1.7,-0.18
10.999,61.4,-2.6,0.3,0.051,-0.443,-0.909,-0.03,0,-1.7,-0.18
11.005,61.8,-3.1,-0.1,0.047,-0.445,-0.903,-0.03,0,-1.7,-0.18
11.011,62.2,-3.7,-0.6,0.043,-0.447,-0.898,-0.03,0,-1.7,-0.18
11.017,62.1,-4.1,-0.9,0.038,-0.451,-0.892,-0.03,0,-1.7,-0.18
11.023,62.2,-4.7,-1.4,0.032,-0.455,-0.887,-0.03,0,-1.7,-0.18
11.028,62.2,-5,-1.8,0.028,-0.459,-0.883,-0.06,0,-1.89,0
11.032,62.1,-5.3,-2.1,0.023,-0.462,-0.878,-0.06,0,-1.89,0
11.036,62.2,-5.7,-2.1,0.021,-0.464,-0.873,-0.06,0,-1.89,0
11.041,62.3,-5.9,-2.3,0.018,-0.467,-0.871,-0.06,0,-1.89,0
11.045,62.2,-6.1,-2.2,0.016,-0.471,-0.869,-0.06,0,-1.89,0
